##TITLE=No Description
##DATA TYPE=INFRARED SPECTRUM
##XUNITS=1/CM
##YUNITS=%T
399.452061  	30.833565 
400.888939  	31.471937 
402.325817  	31.034347 
403.762695  	30.825639 
405.199573  	31.554038 
406.636451  	31.854665 
408.073328  	31.678798 
409.510206  	31.370110 
410.947084  	31.271218 
412.383962  	31.595720 
413.820840  	31.719037 
415.257718  	31.714297 
416.694596  	31.694373 
418.131474  	31.037847 
419.568352  	31.130653 
421.005230  	31.792286 
422.442108  	31.717306 
423.878986  	31.788072 
425.315863  	31.855288 
426.752741  	31.662012 
428.189619  	31.664143 
429.626497  	31.775045 
431.063375  	32.000424 
432.500253  	32.051190 
433.937131  	31.913420 
435.374009  	32.098093 
436.810887  	32.214103 
438.247765  	32.414944 
439.684643  	32.819763 
441.121521  	32.830494 
442.558398  	32.968712 
443.995276  	32.833910 
445.432154  	32.134958 
446.869032  	32.516531 
448.305910  	33.160464 
449.742788  	32.687470 
451.179666  	32.440409 
452.616544  	32.483826 
454.053422  	32.371309 
455.490300  	32.729539 
456.927178  	33.431778 
458.364056  	33.817839 
459.800933  	33.406927 
461.237811  	32.852986 
462.674689  	33.037819 
464.111567  	33.308283 
465.548445  	33.012858 
466.985323  	32.845069 
468.422201  	33.072510 
469.859079  	33.529944 
471.295957  	33.885147 
472.732835  	33.734880 
474.169713  	33.560289 
475.606591  	33.516021 
477.043469  	33.441141 
478.480346  	33.595127 
479.917224  	33.751332 
481.354102  	33.739663 
482.790980  	33.825988 
484.227858  	34.035690 
485.664736  	34.030720 
487.101614  	33.829827 
488.538492  	33.981917 
489.975370  	34.318384 
491.412248  	34.202812 
492.849126  	33.993628 
494.286004  	34.106115 
495.722881  	34.248675 
497.159759  	34.290361 
498.596637  	34.175220 
500.033515  	34.104192 
501.470393  	34.164175 
502.907271  	34.054599 
504.344149  	33.997527 
505.781027  	34.151475 
507.217905  	34.260942 
508.654783  	34.251537 
510.091661  	34.146291 
511.528539  	34.154301 
512.965416  	34.276291 
514.402294  	34.139254 
515.839172  	34.036453 
517.276050  	34.199579 
518.712928  	34.278084 
520.149806  	34.301602 
521.586684  	34.172547 
523.023562  	33.891632 
524.460440  	33.892459 
525.897318  	34.062646 
527.334196  	34.143337 
528.771074  	34.181277 
530.207951  	34.128842 
531.644829  	34.180347 
533.081707  	34.303540 
534.518585  	34.231665 
535.955463  	34.223746 
537.392341  	34.324277 
538.829219  	34.304233 
540.266097  	34.291557 
541.702975  	34.301281 
543.139853  	34.262030 
544.576731  	34.222080 
546.013609  	34.270623 
547.450486  	34.445134 
548.887364  	34.425213 
550.324242  	34.181447 
551.761120  	34.172113 
553.197998  	34.332257 
554.634876  	34.394793 
556.071754  	34.403115 
557.508632  	34.329620 
558.945510  	34.277736 
560.382388  	34.387698 
561.819266  	34.494303 
563.256144  	34.521169 
564.693021  	34.524685 
566.129899  	34.495868 
567.566777  	34.491907 
569.003655  	34.615692 
570.440533  	34.810363 
571.877411  	34.868831 
573.314289  	34.798393 
574.751167  	34.835944 
576.188045  	34.942855 
577.624923  	34.971816 
579.061801  	35.005365 
580.498679  	35.004407 
581.935556  	34.933442 
583.372434  	34.970614 
584.809312  	35.017449 
586.246190  	34.932429 
587.683068  	34.950406 
589.119946  	35.086530 
590.556824  	35.158675 
591.993702  	35.285383 
593.430580  	35.428995 
594.867458  	35.433025 
596.304336  	35.483434 
597.741214  	35.572861 
599.178091  	35.554016 
600.614969  	35.566895 
602.051847  	35.593656 
603.488725  	35.562153 
604.925603  	35.568847 
606.362481  	35.572073 
607.799359  	35.544839 
609.236237  	35.548540 
610.673115  	35.527754 
612.109993  	35.535171 
613.546871  	35.547622 
614.983749  	35.503009 
616.420626  	35.522094 
617.857504  	35.580481 
619.294382  	35.609946 
620.731260  	35.719739 
622.168138  	35.833566 
623.605016  	35.855366 
625.041894  	35.855092 
626.478772  	35.896712 
627.915650  	36.024734 
629.352528  	36.137618 
630.789406  	36.161585 
632.226284  	36.247072 
633.663161  	36.361730 
635.100039  	36.444388 
636.536917  	36.555415 
637.973795  	36.629091 
639.410673  	36.695604 
640.847551  	36.834699 
642.284429  	36.953528 
643.721307  	37.035273 
645.158185  	37.115181 
646.595063  	37.171265 
648.031941  	37.216161 
649.468819  	37.265376 
650.905696  	37.349966 
652.342574  	37.462843 
653.779452  	37.509462 
655.216330  	37.541917 
656.653208  	37.604057 
658.090086  	37.605061 
659.526964  	37.619424 
660.963842  	37.649654 
662.400720  	37.678570 
663.837598  	37.747781 
665.274476  	37.786618 
666.711354  	37.771721 
668.148231  	37.840856 
669.585109  	37.917444 
671.021987  	37.895458 
672.458865  	37.922222 
673.895743  	38.002959 
675.332621  	38.070040 
676.769499  	38.105887 
678.206377  	38.074622 
679.643255  	38.057008 
681.080133  	38.148994 
682.517011  	38.244279 
683.953889  	38.258829 
685.390766  	38.258558 
686.827644  	38.301032 
688.264522  	38.347813 
689.701400  	38.306796 
691.138278  	38.303393 
692.575156  	38.385392 
694.012034  	38.396590 
695.448912  	38.386899 
696.885790  	38.451645 
698.322668  	38.482276 
699.759546  	38.502910 
701.196424  	38.566013 
702.633301  	38.574445 
704.070179  	38.564791 
705.507057  	38.600859 
706.943935  	38.644595 
708.380813  	38.713648 
709.817691  	38.767265 
711.254569  	38.783115 
712.691447  	38.828358 
714.128325  	38.875191 
715.565203  	38.890391 
717.002081  	38.938346 
718.438959  	39.023995 
719.875837  	39.100562 
721.312714  	39.183818 
722.749592  	39.251288 
724.186470  	39.298817 
725.623348  	39.353600 
727.060226  	39.412316 
728.497104  	39.466158 
729.933982  	39.501278 
731.370860  	39.578750 
732.807738  	39.697551 
734.244616  	39.743934 
735.681494  	39.809722 
737.118372  	39.865640 
738.555249  	39.937182 
739.992127  	40.026313 
741.429005  	40.094793 
742.865883  	40.130165 
744.302761  	40.183199 
745.739639  	40.251060 
747.176517  	40.279857 
748.613395  	40.295807 
750.050273  	40.336678 
751.487151  	40.380375 
752.924029  	40.406948 
754.360907  	40.434235 
755.797784  	40.475435 
757.234662  	40.490075 
758.671540  	40.469016 
760.108418  	40.480005 
761.545296  	40.547763 
762.982174  	40.626672 
764.419052  	40.666466 
765.855930  	40.690164 
767.292808  	40.775156 
768.729686  	40.876028 
770.166564  	40.926328 
771.603442  	41.003600 
773.040319  	41.094923 
774.477197  	41.112107 
775.914075  	41.139142 
777.350953  	41.248305 
778.787831  	41.365015 
780.224709  	41.424557 
781.661587  	41.449733 
783.098465  	41.505171 
784.535343  	41.584612 
785.972221  	41.648220 
787.409099  	41.689297 
788.845977  	41.675482 
790.282854  	41.646159 
791.719732  	41.662546 
793.156610  	41.688946 
794.593488  	41.746672 
796.030366  	41.804818 
797.467244  	41.784575 
798.904122  	41.813453 
800.341000  	41.904445 
801.777878  	41.916261 
803.214756  	41.940279 
804.651634  	42.022852 
806.088512  	42.065510 
807.525389  	42.097365 
808.962267  	42.125996 
810.399145  	42.138689 
811.836023  	42.191440 
813.272901  	42.282115 
814.709779  	42.413047 
816.146657  	42.590742 
817.583535  	42.779335 
819.020413  	42.953742 
820.457291  	43.064566 
821.894169  	43.136531 
823.331047  	43.227393 
824.767924  	43.283688 
826.204802  	43.311545 
827.641680  	43.353016 
829.078558  	43.375624 
830.515436  	43.381436 
831.952314  	43.375085 
833.389192  	43.368717 
834.826070  	43.378841 
836.262948  	43.374427 
837.699826  	43.383714 
839.136704  	43.398094 
840.573582  	43.351767 
842.010459  	43.296207 
843.447337  	43.244720 
844.884215  	43.178096 
846.321093  	43.164426 
847.757971  	43.166237 
849.194849  	43.117911 
850.631727  	43.049479 
852.068605  	42.966329 
853.505483  	42.902070 
854.942361  	42.865997 
856.379239  	42.796586 
857.816117  	42.728501 
859.252994  	42.689200 
860.689872  	42.640126 
862.126750  	42.611500 
863.563628  	42.590938 
865.000506  	42.523376 
866.437384  	42.450281 
867.874262  	42.406946 
869.311140  	42.369452 
870.748018  	42.335787 
872.184896  	42.319192 
873.621774  	42.313320 
875.058652  	42.301137 
876.495529  	42.303553 
877.932407  	42.355434 
879.369285  	42.423770 
880.806163  	42.446234 
882.243041  	42.409695 
883.679919  	42.357029 
885.116797  	42.320857 
886.553675  	42.271649 
887.990553  	42.185212 
889.427431  	42.091874 
890.864309  	42.010438 
892.301187  	41.919251 
893.738064  	41.815711 
895.174942  	41.728063 
896.611820  	41.664062 
898.048698  	41.611000 
899.485576  	41.561131 
900.922454  	41.501960 
902.359332  	41.441745 
903.796210  	41.405875 
905.233088  	41.376372 
906.669966  	41.338034 
908.106844  	41.319088 
909.543722  	41.312474 
910.980599  	41.290050 
912.417477  	41.289491 
913.854355  	41.348692 
915.291233  	41.401410 
916.728111  	41.388693 
918.164989  	41.381645 
919.601867  	41.411636 
921.038745  	41.418165 
922.475623  	41.435255 
923.912501  	41.491131 
925.349379  	41.519007 
926.786257  	41.518977 
928.223134  	41.502822 
929.660012  	41.454504 
931.096890  	41.420008 
932.533768  	41.413191 
933.970646  	41.414676 
935.407524  	41.437850 
936.844402  	41.465824 
938.281280  	41.501297 
939.718158  	41.593915 
941.155036  	41.743187 
942.591914  	41.915612 
944.028792  	42.114395 
945.465670  	42.377157 
946.902547  	42.707303 
948.339425  	43.075526 
949.776303  	43.475979 
951.213181  	43.873073 
952.650059  	44.262514 
954.086937  	44.675756 
955.523815  	45.047468 
956.960693  	45.382874 
958.397571  	45.750310 
959.834449  	46.108907 
961.271327  	46.450991 
962.708205  	46.789634 
964.145082  	47.127066 
965.581960  	47.470642 
967.018838  	47.756513 
968.455716  	48.019710 
969.892594  	48.279646 
971.329472  	48.434392 
972.766350  	48.545045 
974.203228  	48.643903 
975.640106  	48.700968 
977.076984  	48.789228 
978.513862  	48.823737 
979.950740  	48.783845 
981.387617  	48.791953 
982.824495  	48.770779 
984.261373  	48.712261 
985.698251  	48.672701 
987.135129  	48.587813 
988.572007  	48.511426 
990.008885  	48.444396 
991.445763  	48.315997 
992.882641  	48.202996 
994.319519  	48.110162 
995.756397  	47.997649 
997.193275  	47.886834 
998.630152  	47.766071 
1000.067030  	47.655591 
1001.503908  	47.531424 
1002.940786  	47.370486 
1004.377664  	47.240727 
1005.814542  	47.097445 
1007.251420  	46.904413 
1008.688298  	46.713321 
1010.125176  	46.476332 
1011.562054  	46.213388 
1012.998932  	45.994888 
1014.435810  	45.749714 
1015.872687  	45.438095 
1017.309565  	45.119080 
1018.746443  	44.889487 
1020.183321  	44.823514 
1021.620199  	44.855106 
1023.057077  	44.948506 
1024.493955  	45.162656 
1025.930833  	45.429735 
1027.367711  	45.652543 
1028.804589  	45.806261 
1030.241467  	45.886963 
1031.678345  	45.892557 
1033.115222  	45.812285 
1034.552100  	45.694463 
1035.988978  	45.558531 
1037.425856  	45.368430 
1038.862734  	45.192000 
1040.299612  	45.065149 
1041.736490  	44.937488 
1043.173368  	44.884167 
1044.610246  	44.983188 
1046.047124  	45.164198 
1047.484002  	45.340271 
1048.920880  	45.470465 
1050.357757  	45.548820 
1051.794635  	45.569799 
1053.231513  	45.564984 
1054.668391  	45.556857 
1056.105269  	45.498301 
1057.542147  	45.427538 
1058.979025  	45.371102 
1060.415903  	45.258653 
1061.852781  	45.147711 
1063.289659  	45.084974 
1064.726537  	44.999467 
1066.163415  	44.902211 
1067.600292  	44.787821 
1069.037170  	44.634619 
1070.474048  	44.509011 
1071.910926  	44.400818 
1073.347804  	44.276205 
1074.784682  	44.165130 
1076.221560  	44.057113 
1077.658438  	43.966458 
1079.095316  	43.916153 
1080.532194  	43.870622 
1081.969072  	43.809400 
1083.405950  	43.719033 
1084.842827  	43.637372 
1086.279705  	43.611932 
1087.716583  	43.575852 
1089.153461  	43.509917 
1090.590339  	43.463870 
1092.027217  	43.417173 
1093.464095  	43.369496 
1094.900973  	43.334356 
1096.337851  	43.299646 
1097.774729  	43.277747 
1099.211607  	43.254506 
1100.648485  	43.241602 
1102.085362  	43.270608 
1103.522240  	43.283850 
1104.959118  	43.271799 
1106.395996  	43.300461 
1107.832874  	43.348270 
1109.269752  	43.360356 
1110.706630  	43.351679 
1112.143508  	43.369715 
1113.580386  	43.427628 
1115.017264  	43.495811 
1116.454142  	43.552325 
1117.891020  	43.598741 
1119.327897  	43.636104 
1120.764775  	43.661578 
1122.201653  	43.707778 
1123.638531  	43.808496 
1125.075409  	43.922611 
1126.512287  	44.027241 
1127.949165  	44.144246 
1129.386043  	44.244770 
1130.822921  	44.325835 
1132.259799  	44.392855 
1133.696677  	44.413519 
1135.133555  	44.427165 
1136.570432  	44.462140 
1138.007310  	44.484250 
1139.444188  	44.491841 
1140.881066  	44.485331 
1142.317944  	44.478783 
1143.754822  	44.483683 
1145.191700  	44.468442 
1146.628578  	44.447679 
1148.065456  	44.424886 
1149.502334  	44.359576 
1150.939212  	44.289952 
1152.376090  	44.256854 
1153.812967  	44.228919 
1155.249845  	44.196147 
1156.686723  	44.173464 
1158.123601  	44.149768 
1159.560479  	44.115264 
1160.997357  	44.103683 
1162.434235  	44.126473 
1163.871113  	44.138229 
1165.307991  	44.140998 
1166.744869  	44.148875 
1168.181747  	44.139755 
1169.618625  	44.136279 
1171.055502  	44.126541 
1172.492380  	44.074309 
1173.929258  	44.018810 
1175.366136  	43.959062 
1176.803014  	43.876401 
1178.239892  	43.804266 
1179.676770  	43.732959 
1181.113648  	43.657207 
1182.550526  	43.601107 
1183.987404  	43.553700 
1185.424282  	43.502265 
1186.861160  	43.427786 
1188.298038  	43.343179 
1189.734915  	43.292407 
1191.171793  	43.243197 
1192.608671  	43.180293 
1194.045549  	43.138883 
1195.482427  	43.094974 
1196.919305  	43.047432 
1198.356183  	43.017749 
1199.793061  	42.982878 
1201.229939  	42.947209 
1202.666817  	42.911805 
1204.103695  	42.874344 
1205.540573  	42.868444 
1206.977450  	42.881039 
1208.414328  	42.886784 
1209.851206  	42.890146 
1211.288084  	42.881692 
1212.724962  	42.869057 
1214.161840  	42.863946 
1215.598718  	42.867816 
1217.035596  	42.875952 
1218.472474  	42.867724 
1219.909352  	42.866356 
1221.346230  	42.880829 
1222.783108  	42.871472 
1224.219985  	42.861575 
1225.656863  	42.864402 
1227.093741  	42.845577 
1228.530619  	42.821153 
1229.967497  	42.806375 
1231.404375  	42.795908 
1232.841253  	42.783164 
1234.278131  	42.757071 
1235.715009  	42.746698 
1237.151887  	42.752731 
1238.588765  	42.743137 
1240.025643  	42.735794 
1241.462520  	42.736108 
1242.899398  	42.748653 
1244.336276  	42.784690 
1245.773154  	42.806412 
1247.210032  	42.819978 
1248.646910  	42.847638 
1250.083788  	42.867107 
1251.520666  	42.889322 
1252.957544  	42.913671 
1254.394422  	42.929927 
1255.831300  	42.957364 
1257.268178  	42.975037 
1258.705055  	42.976903 
1260.141933  	42.995918 
1261.578811  	43.027650 
1263.015689  	43.044366 
1264.452567  	43.029934 
1265.889445  	43.018306 
1267.326323  	43.036977 
1268.763201  	43.039474 
1270.200079  	43.017308 
1271.636957  	42.995611 
1273.073835  	42.968799 
1274.510713  	42.950530 
1275.947590  	42.937691 
1277.384468  	42.918690 
1278.821346  	42.902036 
1280.258224  	42.869858 
1281.695102  	42.832192 
1283.131980  	42.805006 
1284.568858  	42.761657 
1286.005736  	42.708072 
1287.442614  	42.656165 
1288.879492  	42.614253 
1290.316370  	42.595384 
1291.753248  	42.570471 
1293.190125  	42.556697 
1294.627003  	42.575904 
1296.063881  	42.580949 
1297.500759  	42.585432 
1298.937637  	42.598821 
1300.374515  	42.588637 
1301.811393  	42.586885 
1303.248271  	42.590101 
1304.685149  	42.575620 
1306.122027  	42.569552 
1307.558905  	42.565238 
1308.995783  	42.556854 
1310.432660  	42.551472 
1311.869538  	42.543502 
1313.306416  	42.550199 
1314.743294  	42.554236 
1316.180172  	42.543172 
1317.617050  	42.543867 
1319.053928  	42.541886 
1320.490806  	42.531426 
1321.927684  	42.519165 
1323.364562  	42.499458 
1324.801440  	42.497613 
1326.238318  	42.502602 
1327.675195  	42.492975 
1329.112073  	42.480824 
1330.548951  	42.448321 
1331.985829  	42.417572 
1333.422707  	42.418136 
1334.859585  	42.408973 
1336.296463  	42.392198 
1337.733341  	42.362909 
1339.170219  	42.330986 
1340.607097  	42.340690 
1342.043975  	42.344400 
1343.480853  	42.312102 
1344.917730  	42.278031 
1346.354608  	42.250455 
1347.791486  	42.224074 
1349.228364  	42.204200 
1350.665242  	42.180868 
1352.102120  	42.147235 
1353.538998  	42.092532 
1354.975876  	42.062562 
1356.412754  	42.058925 
1357.849632  	42.020783 
1359.286510  	41.971815 
1360.723388  	41.921318 
1362.160265  	41.868303 
1363.597143  	41.862927 
1365.034021  	41.849141 
1366.470899  	41.789620 
1367.907777  	41.745612 
1369.344655  	41.713087 
1370.781533  	41.679690 
1372.218411  	41.661922 
1373.655289  	41.644226 
1375.092167  	41.701146 
1376.529045  	41.749624 
1377.965923  	41.761399 
1379.402800  	41.847229 
1380.839678  	41.929484 
1382.276556  	41.979472 
1383.713434  	42.046624 
1385.150312  	42.070561 
1386.587190  	42.112235 
1388.024068  	42.219006 
1389.460946  	42.271382 
1390.897824  	42.286135 
1392.334702  	42.232942 
1393.771580  	42.176406 
1395.208458  	42.166801 
1396.645335  	42.129165 
1398.082213  	42.062498 
1399.519091  	42.034937 
1400.955969  	41.992882 
1402.392847  	41.914434 
1403.829725  	41.838782 
1405.266603  	41.785083 
1406.703481  	41.741632 
1408.140359  	41.672418 
1409.577237  	41.602715 
1411.014115  	41.566094 
1412.450993  	41.507513 
1413.887871  	41.481405 
1415.324748  	41.456359 
1416.761626  	41.363192 
1418.198504  	41.341510 
1419.635382  	41.496633 
1421.072260  	41.557383 
1422.509138  	41.509987 
1423.946016  	41.543712 
1425.382894  	41.686869 
1426.819772  	41.710201 
1428.256650  	41.710942 
1429.693528  	41.798285 
1431.130406  	41.868594 
1432.567283  	41.904243 
1434.004161  	41.906660 
1435.441039  	41.868625 
1436.877917  	41.999632 
1438.314795  	42.135509 
1439.751673  	42.080051 
1441.188551  	42.079406 
1442.625429  	42.138656 
1444.062307  	42.174672 
1445.499185  	42.219960 
1446.936063  	42.267180 
1448.372941  	42.419604 
1449.809818  	42.562939 
1451.246696  	42.587844 
1452.683574  	42.666500 
1454.120452  	42.714804 
1455.557330  	42.691974 
1456.994208  	42.908663 
1458.431086  	43.196466 
1459.867964  	43.288777 
1461.304842  	43.355193 
1462.741720  	43.350351 
1464.178598  	43.421161 
1465.615476  	43.611668 
1467.052353  	43.696847 
1468.489231  	43.726525 
1469.926109  	43.736629 
1471.362987  	43.736357 
1472.799865  	43.820895 
1474.236743  	43.882328 
1475.673621  	43.892397 
1477.110499  	43.925642 
1478.547377  	43.945731 
1479.984255  	43.950974 
1481.421133  	43.969408 
1482.858011  	44.002011 
1484.294888  	44.002218 
1485.731766  	43.943285 
1487.168644  	43.889900 
1488.605522  	43.817254 
1490.042400  	43.795901 
1491.479278  	43.827097 
1492.916156  	43.762032 
1494.353034  	43.665208 
1495.789912  	43.600329 
1497.226790  	43.568024 
1498.663668  	43.547325 
1500.100546  	43.505816 
1501.537423  	43.446755 
1502.974301  	43.372266 
1504.411179  	43.244883 
1505.848057  	43.130781 
1507.284935  	43.169918 
1508.721813  	43.130245 
1510.158691  	43.024045 
1511.595569  	42.933491 
1513.032447  	42.876411 
1514.469325  	42.796567 
1515.906203  	42.687052 
1517.343081  	42.680002 
1518.779958  	42.621820 
1520.216836  	42.462786 
1521.653714  	42.443970 
1523.090592  	42.440253 
1524.527470  	42.296800 
1525.964348  	42.206320 
1527.401226  	42.129753 
1528.838104  	42.052188 
1530.274982  	41.974010 
1531.711860  	41.834267 
1533.148738  	41.746046 
1534.585616  	41.755361 
1536.022493  	41.621487 
1537.459371  	41.451847 
1538.896249  	41.300580 
1540.333127  	41.285516 
1541.770005  	41.271633 
1543.206883  	41.084535 
1544.643761  	40.952909 
1546.080639  	40.908252 
1547.517517  	40.781998 
1548.954395  	40.647741 
1550.391273  	40.556280 
1551.828151  	40.432743 
1553.265028  	40.295320 
1554.701906  	40.186971 
1556.138784  	40.037823 
1557.575662  	39.824178 
1559.012540  	39.700741 
1560.449418  	39.783250 
1561.886296  	39.587191 
1563.323174  	39.392154 
1564.760052  	39.281210 
1566.196930  	39.189848 
1567.633808  	39.055796 
1569.070686  	38.957286 
1570.507563  	38.943663 
1571.944441  	38.876136 
1573.381319  	38.725251 
1574.818197  	38.584882 
1576.255075  	38.574637 
1577.691953  	38.594925 
1579.128831  	38.479860 
1580.565709  	38.369056 
1582.002587  	38.295757 
1583.439465  	38.209868 
1584.876343  	38.104434 
1586.313221  	38.014554 
1587.750098  	37.930831 
1589.186976  	37.846566 
1590.623854  	37.758720 
1592.060732  	37.662507 
1593.497610  	37.566024 
1594.934488  	37.486153 
1596.371366  	37.400650 
1597.808244  	37.314913 
1599.245122  	37.276743 
1600.682000  	37.256498 
1602.118878  	37.225134 
1603.555756  	37.221106 
1604.992633  	37.218520 
1606.429511  	37.214238 
1607.866389  	37.271298 
1609.303267  	37.346183 
1610.740145  	37.416256 
1612.177023  	37.507789 
1613.613901  	37.532230 
1615.050779  	37.538625 
1616.487657  	37.715171 
1617.924535  	38.023253 
1619.361413  	38.145473 
1620.798291  	38.160796 
1622.235168  	38.227267 
1623.672046  	38.499142 
1625.108924  	38.708615 
1626.545802  	38.819340 
1627.982680  	39.005013 
1629.419558  	39.202620 
1630.856436  	39.390534 
1632.293314  	39.525435 
1633.730192  	39.562913 
1635.167070  	39.761820 
1636.603948  	40.256979 
1638.040826  	40.419842 
1639.477703  	40.504276 
1640.914581  	40.691316 
1642.351459  	40.918982 
1643.788337  	41.071652 
1645.225215  	41.209084 
1646.662093  	41.552251 
1648.098971  	41.999448 
1649.535849  	42.134080 
1650.972727  	42.117987 
1652.409605  	42.111180 
1653.846483  	42.932865 
1655.283361  	43.180717 
1656.720239  	43.176747 
1658.157116  	43.375398 
1659.593994  	43.561571 
1661.030872  	43.712232 
1662.467750  	43.943768 
1663.904628  	44.183087 
1665.341506  	44.357673 
1666.778384  	44.498816 
1668.215262  	44.629923 
1669.652140  	44.871195 
1671.089018  	45.122974 
1672.525896  	45.267879 
1673.962774  	45.420721 
1675.399651  	45.633050 
1676.836529  	45.852471 
1678.273407  	45.991476 
1679.710285  	46.110127 
1681.147163  	46.242706 
1682.584041  	46.290649 
1684.020919  	46.383139 
1685.457797  	46.742648 
1686.894675  	46.819385 
1688.331553  	46.862777 
1689.768431  	46.973081 
1691.205309  	47.085177 
1692.642186  	47.182189 
1694.079064  	47.212390 
1695.515942  	47.280788 
1696.952820  	47.405222 
1698.389698  	47.357448 
1699.826576  	47.311949 
1701.263454  	47.500523 
1702.700332  	47.526504 
1704.137210  	47.516050 
1705.574088  	47.551437 
1707.010966  	47.595226 
1708.447844  	47.657373 
1709.884721  	47.705517 
1711.321599  	47.726756 
1712.758477  	47.777785 
1714.195355  	47.805513 
1715.632233  	47.815823 
1717.069111  	47.865931 
1718.505989  	47.945489 
1719.942867  	47.996415 
1721.379745  	47.989991 
1722.816623  	47.991567 
1724.253501  	48.054310 
1725.690379  	48.085628 
1727.127256  	48.087080 
1728.564134  	48.082162 
1730.001012  	48.073821 
1731.437890  	48.064306 
1732.874768  	48.026647 
1734.311646  	48.042735 
1735.748524  	48.123871 
1737.185402  	48.051474 
1738.622280  	47.965670 
1740.059158  	47.974728 
1741.496036  	47.969188 
1742.932914  	47.939709 
1744.369791  	47.941805 
1745.806669  	47.920398 
1747.243547  	47.912427 
1748.680425  	47.902890 
1750.117303  	47.867405 
1751.554181  	47.869154 
1752.991059  	47.842709 
1754.427937  	47.790034 
1755.864815  	47.763002 
1757.301693  	47.762687 
1758.738571  	47.744778 
1760.175449  	47.682454 
1761.612326  	47.649827 
1763.049204  	47.701789 
1764.486082  	47.698714 
1765.922960  	47.651911 
1767.359838  	47.621976 
1768.796716  	47.581149 
1770.233594  	47.522366 
1771.670472  	47.467306 
1773.107350  	47.452941 
1774.544228  	47.458490 
1775.981106  	47.418968 
1777.417984  	47.382529 
1778.854861  	47.354533 
1780.291739  	47.318653 
1781.728617  	47.306887 
1783.165495  	47.270785 
1784.602373  	47.238809 
1786.039251  	47.244830 
1787.476129  	47.196013 
1788.913007  	47.119614 
1790.349885  	47.110787 
1791.786763  	47.081938 
1793.223641  	47.090487 
1794.660519  	47.060274 
1796.097396  	46.961166 
1797.534274  	46.940477 
1798.971152  	46.924009 
1800.408030  	46.882542 
1801.844908  	46.918890 
1803.281786  	46.910129 
1804.718664  	46.875065 
1806.155542  	46.853108 
1807.592420  	46.800314 
1809.029298  	46.779067 
1810.466176  	46.768371 
1811.903054  	46.763138 
1813.339931  	46.787712 
1814.776809  	46.736063 
1816.213687  	46.702538 
1817.650565  	46.703898 
1819.087443  	46.667283 
1820.524321  	46.641826 
1821.961199  	46.627678 
1823.398077  	46.577654 
1824.834955  	46.583997 
1826.271833  	46.610050 
1827.708711  	46.559541 
1829.145589  	46.515848 
1830.582466  	46.537711 
1832.019344  	46.549072 
1833.456222  	46.489596 
1834.893100  	46.447928 
1836.329978  	46.453551 
1837.766856  	46.406823 
1839.203734  	46.381969 
1840.640612  	46.388778 
1842.077490  	46.322909 
1843.514368  	46.305829 
1844.951246  	46.387615 
1846.388124  	46.363539 
1847.825001  	46.324720 
1849.261879  	46.304279 
1850.698757  	46.281571 
1852.135635  	46.277090 
1853.572513  	46.226685 
1855.009391  	46.208577 
1856.446269  	46.239888 
1857.883147  	46.187458 
1859.320025  	46.141155 
1860.756903  	46.154070 
1862.193781  	46.213677 
1863.630659  	46.250711 
1865.067536  	46.112206 
1866.504414  	45.980122 
1867.941292  	46.001669 
1869.378170  	46.036046 
1870.815048  	46.106357 
1872.251926  	46.102354 
1873.688804  	46.007563 
1875.125682  	46.014542 
1876.562560  	46.009050 
1877.999438  	45.945975 
1879.436316  	45.970131 
1880.873194  	45.997364 
1882.310072  	45.983842 
1883.746949  	45.957299 
1885.183827  	45.945914 
1886.620705  	45.982378 
1888.057583  	45.950306 
1889.494461  	45.883068 
1890.931339  	45.882648 
1892.368217  	45.853554 
1893.805095  	45.859111 
1895.241973  	45.897190 
1896.678851  	45.912626 
1898.115729  	45.939145 
1899.552607  	45.908427 
1900.989484  	45.876122 
1902.426362  	45.871780 
1903.863240  	45.831112 
1905.300118  	45.820299 
1906.736996  	45.804733 
1908.173874  	45.717638 
1909.610752  	45.709249 
1911.047630  	45.705651 
1912.484508  	45.646647 
1913.921386  	45.685961 
1915.358264  	45.692176 
1916.795142  	45.693318 
1918.232019  	45.765569 
1919.668897  	45.774943 
1921.105775  	45.757806 
1922.542653  	45.753662 
1923.979531  	45.723050 
1925.416409  	45.671493 
1926.853287  	45.589341 
1928.290165  	45.620112 
1929.727043  	45.725522 
1931.163921  	45.740656 
1932.600799  	45.740192 
1934.037677  	45.727370 
1935.474554  	45.677717 
1936.911432  	45.721617 
1938.348310  	45.802810 
1939.785188  	45.874182 
1941.222066  	45.858091 
1942.658944  	45.757414 
1944.095822  	45.858492 
1945.532700  	45.956686 
1946.969578  	45.876318 
1948.406456  	45.882839 
1949.843334  	45.890385 
1951.280212  	45.870946 
1952.717089  	45.901412 
1954.153967  	45.857526 
1955.590845  	45.998954 
1957.027723  	46.173067 
1958.464601  	46.230980 
1959.901479  	46.567878 
1961.338357  	46.655876 
1962.775235  	46.358842 
1964.212113  	46.399604 
1965.648991  	46.577463 
1967.085869  	46.774623 
1968.522747  	47.006715 
1969.959624  	46.795289 
1971.396502  	46.455846 
1972.833380  	46.468059 
1974.270258  	46.563075 
1975.707136  	46.651158 
1977.144014  	46.733494 
1978.580892  	46.744686 
1980.017770  	46.730711 
1981.454648  	46.667333 
1982.891526  	46.433513 
1984.328404  	46.112965 
1985.765282  	45.977492 
1987.202159  	46.032292 
1988.639037  	46.083570 
1990.075915  	46.140697 
1991.512793  	46.144552 
1992.949671  	46.085228 
1994.386549  	46.121588 
1995.823427  	46.113639 
1997.260305  	46.013844 
1998.697183  	46.109773 
2000.134061  	46.025919 
2001.570939  	45.918626 
2003.007817  	46.178738 
2004.444694  	46.225102 
2005.881572  	46.006812 
2007.318450  	46.107979 
2008.755328  	46.375529 
2010.192206  	46.505406 
2011.629084  	46.488776 
2013.065962  	46.328050 
2014.502840  	46.182469 
2015.939718  	46.365532 
2017.376596  	46.675182 
2018.813474  	46.534865 
2020.250352  	46.304575 
2021.687229  	46.387388 
2023.124107  	46.361617 
2024.560985  	46.148444 
2025.997863  	46.076323 
2027.434741  	46.200322 
2028.871619  	46.445464 
2030.308497  	46.424830 
2031.745375  	46.101599 
2033.182253  	45.977392 
2034.619131  	46.104113 
2036.056009  	46.207483 
2037.492887  	46.203740 
2038.929764  	46.110908 
2040.366642  	46.070726 
2041.803520  	46.084661 
2043.240398  	46.062025 
2044.677276  	45.967154 
2046.114154  	45.757483 
2047.551032  	45.580923 
2048.987910  	45.491240 
2050.424788  	45.305607 
2051.861666  	45.126572 
2053.298544  	45.129771 
2054.735422  	45.247889 
2056.172299  	45.326634 
2057.609177  	45.231751 
2059.046055  	45.066826 
2060.482933  	44.941340 
2061.919811  	44.843670 
2063.356689  	44.888271 
2064.793567  	45.012018 
2066.230445  	45.015817 
2067.667323  	44.955039 
2069.104201  	44.862594 
2070.541079  	44.821825 
2071.977957  	44.878827 
2073.414834  	44.843494 
2074.851712  	44.776643 
2076.288590  	44.801072 
2077.725468  	44.821475 
2079.162346  	44.800178 
2080.599224  	44.667536 
2082.036102  	44.534523 
2083.472980  	44.588658 
2084.909858  	44.617752 
2086.346736  	44.552013 
2087.783614  	44.578430 
2089.220492  	44.624386 
2090.657369  	44.631046 
2092.094247  	44.658356 
2093.531125  	44.696650 
2094.968003  	44.685697 
2096.404881  	44.584261 
2097.841759  	44.502194 
2099.278637  	44.475188 
2100.715515  	44.449314 
2102.152393  	44.479605 
2103.589271  	44.485586 
2105.026149  	44.425001 
2106.463027  	44.412157 
2107.899904  	44.431907 
2109.336782  	44.482273 
2110.773660  	44.489103 
2112.210538  	44.395015 
2113.647416  	44.390966 
2115.084294  	44.392938 
2116.521172  	44.294267 
2117.958050  	44.276327 
2119.394928  	44.260541 
2120.831806  	44.256595 
2122.268684  	44.407582 
2123.705562  	44.476554 
2125.142440  	44.416684 
2126.579317  	44.350453 
2128.016195  	44.289607 
2129.453073  	44.357263 
2130.889951  	44.421905 
2132.326829  	44.394474 
2133.763707  	44.556265 
2135.200585  	44.826555 
2136.637463  	44.966941 
2138.074341  	44.889397 
2139.511219  	44.703192 
2140.948097  	44.758278 
2142.384975  	44.928699 
2143.821852  	44.956412 
2145.258730  	45.027256 
2146.695608  	45.102039 
2148.132486  	45.136697 
2149.569364  	45.188599 
2151.006242  	45.212132 
2152.443120  	45.382275 
2153.879998  	45.697167 
2155.316876  	46.064836 
2156.753754  	46.330016 
2158.190632  	46.212833 
2159.627510  	46.241024 
2161.064387  	46.409522 
2162.501265  	46.092791 
2163.938143  	45.686315 
2165.375021  	45.474052 
2166.811899  	45.296818 
2168.248777  	45.371252 
2169.685655  	45.495364 
2171.122533  	45.403686 
2172.559411  	45.421541 
2173.996289  	45.446485 
2175.433167  	45.162993 
2176.870045  	44.952262 
2178.306922  	45.056804 
2179.743800  	45.065661 
2181.180678  	44.908912 
2182.617556  	44.965839 
2184.054434  	45.129549 
2185.491312  	45.142526 
2186.928190  	45.080113 
2188.365068  	44.940316 
2189.801946  	44.815869 
2191.238824  	44.802105 
2192.675702  	44.820503 
2194.112580  	44.800667 
2195.549457  	44.576094 
2196.986335  	44.370298 
2198.423213  	44.483975 
2199.860091  	44.498499 
2201.296969  	44.386160 
2202.733847  	44.426169 
2204.170725  	44.271711 
2205.607603  	44.102210 
2207.044481  	44.198272 
2208.481359  	44.215584 
2209.918237  	44.313716 
2211.355115  	44.492045 
2212.791992  	44.443591 
2214.228870  	44.388503 
2215.665748  	44.291571 
2217.102626  	44.186885 
2218.539504  	44.302968 
2219.976382  	44.276762 
2221.413260  	44.116742 
2222.850138  	44.066412 
2224.287016  	43.933288 
2225.723894  	43.840456 
2227.160772  	43.848285 
2228.597650  	43.795360 
2230.034527  	43.814913 
2231.471405  	43.858023 
2232.908283  	43.873530 
2234.345161  	43.889674 
2235.782039  	43.849037 
2237.218917  	43.910263 
2238.655795  	43.942788 
2240.092673  	43.785115 
2241.529551  	43.723781 
2242.966429  	43.706610 
2244.403307  	43.629713 
2245.840185  	43.663139 
2247.277062  	43.669034 
2248.713940  	43.572973 
2250.150818  	43.501617 
2251.587696  	43.534653 
2253.024574  	43.655277 
2254.461452  	43.614926 
2255.898330  	43.528441 
2257.335208  	43.633707 
2258.772086  	43.606156 
2260.208964  	43.438707 
2261.645842  	43.394519 
2263.082720  	43.345507 
2264.519597  	43.313177 
2265.956475  	43.368688 
2267.393353  	43.384752 
2268.830231  	43.374356 
2270.267109  	43.350201 
2271.703987  	43.320782 
2273.140865  	43.305088 
2274.577743  	43.265400 
2276.014621  	43.254086 
2277.451499  	43.235522 
2278.888377  	43.145677 
2280.325255  	43.089452 
2281.762132  	43.090175 
2283.199010  	43.072725 
2284.635888  	42.997851 
2286.072766  	42.922850 
2287.509644  	42.904955 
2288.946522  	42.849570 
2290.383400  	42.805869 
2291.820278  	42.863813 
2293.257156  	42.863477 
2294.694034  	42.818846 
2296.130912  	42.829801 
2297.567790  	42.814124 
2299.004667  	42.768476 
2300.441545  	42.739906 
2301.878423  	42.689480 
2303.315301  	42.749259 
2304.752179  	42.775923 
2306.189057  	42.693232 
2307.625935  	42.651586 
2309.062813  	42.642414 
2310.499691  	42.647014 
2311.936569  	42.640097 
2313.373447  	42.575985 
2314.810325  	42.559613 
2316.247202  	42.547298 
2317.684080  	42.480586 
2319.120958  	42.472255 
2320.557836  	42.470838 
2321.994714  	42.425563 
2323.431592  	42.392704 
2324.868470  	42.380239 
2326.305348  	42.415591 
2327.742226  	42.418143 
2329.179104  	42.356799 
2330.615982  	42.374840 
2332.052860  	42.435708 
2333.489737  	42.442439 
2334.926615  	42.402372 
2336.363493  	42.349934 
2337.800371  	42.383330 
2339.237249  	42.419217 
2340.674127  	42.373982 
2342.111005  	42.368104 
2343.547883  	42.362929 
2344.984761  	42.352881 
2346.421639  	42.384927 
2347.858517  	42.339326 
2349.295395  	42.261028 
2350.732273  	42.227045 
2352.169150  	42.218768 
2353.606028  	42.278584 
2355.042906  	42.288709 
2356.479784  	42.204509 
2357.916662  	42.205410 
2359.353540  	42.256649 
2360.790418  	42.269439 
2362.227296  	42.275462 
2363.664174  	42.257326 
2365.101052  	42.249737 
2366.537930  	42.255628 
2367.974808  	42.272356 
2369.411685  	42.306234 
2370.848563  	42.292042 
2372.285441  	42.291979 
2373.722319  	42.332494 
2375.159197  	42.314150 
2376.596075  	42.289850 
2378.032953  	42.285332 
2379.469831  	42.267979 
2380.906709  	42.257986 
2382.343587  	42.263211 
2383.780465  	42.281205 
2385.217343  	42.286774 
2386.654220  	42.224940 
2388.091098  	42.177804 
2389.527976  	42.192667 
2390.964854  	42.205252 
2392.401732  	42.221265 
2393.838610  	42.231050 
2395.275488  	42.209853 
2396.712366  	42.179255 
2398.149244  	42.167486 
2399.586122  	42.205533 
2401.023000  	42.230368 
2402.459878  	42.203805 
2403.896755  	42.201766 
2405.333633  	42.209810 
2406.770511  	42.204596 
2408.207389  	42.197567 
2409.644267  	42.154643 
2411.081145  	42.125718 
2412.518023  	42.129799 
2413.954901  	42.130673 
2415.391779  	42.151548 
2416.828657  	42.128802 
2418.265535  	42.059725 
2419.702413  	42.055411 
2421.139290  	42.073349 
2422.576168  	42.056843 
2424.013046  	42.035052 
2425.449924  	42.024727 
2426.886802  	42.040056 
2428.323680  	42.046257 
2429.760558  	42.041739 
2431.197436  	42.045884 
2432.634314  	42.027766 
2434.071192  	42.032036 
2435.508070  	42.051726 
2436.944948  	42.028439 
2438.381825  	42.004530 
2439.818703  	41.957184 
2441.255581  	41.908409 
2442.692459  	41.947276 
2444.129337  	41.969933 
2445.566215  	41.932441 
2447.003093  	41.927945 
2448.439971  	41.953499 
2449.876849  	41.983180 
2451.313727  	41.985662 
2452.750605  	41.965910 
2454.187483  	41.951218 
2455.624360  	41.895609 
2457.061238  	41.841120 
2458.498116  	41.825536 
2459.934994  	41.806094 
2461.371872  	41.840001 
2462.808750  	41.878305 
2464.245628  	41.832364 
2465.682506  	41.803618 
2467.119384  	41.808339 
2468.556262  	41.812415 
2469.993140  	41.831954 
2471.430018  	41.783789 
2472.866895  	41.710302 
2474.303773  	41.740457 
2475.740651  	41.791625 
2477.177529  	41.777587 
2478.614407  	41.764266 
2480.051285  	41.779144 
2481.488163  	41.760205 
2482.925041  	41.724015 
2484.361919  	41.731031 
2485.798797  	41.724159 
2487.235675  	41.688505 
2488.672553  	41.664760 
2490.109430  	41.639234 
2491.546308  	41.694189 
2492.983186  	41.794318 
2494.420064  	41.750953 
2495.856942  	41.656365 
2497.293820  	41.635910 
2498.730698  	41.618285 
2500.167576  	41.615459 
2501.604454  	41.627014 
2503.041332  	41.600052 
2504.478210  	41.558493 
2505.915088  	41.539345 
2507.351965  	41.567904 
2508.788843  	41.589067 
2510.225721  	41.567291 
2511.662599  	41.570075 
2513.099477  	41.571452 
2514.536355  	41.563384 
2515.973233  	41.584832 
2517.410111  	41.565820 
2518.846989  	41.508300 
2520.283867  	41.457728 
2521.720745  	41.443366 
2523.157623  	41.525297 
2524.594500  	41.569990 
2526.031378  	41.486216 
2527.468256  	41.450363 
2528.905134  	41.500374 
2530.342012  	41.519223 
2531.778890  	41.484780 
2533.215768  	41.452812 
2534.652646  	41.456175 
2536.089524  	41.422477 
2537.526402  	41.353536 
2538.963280  	41.333531 
2540.400158  	41.329474 
2541.837035  	41.353864 
2543.273913  	41.417816 
2544.710791  	41.419951 
2546.147669  	41.377774 
2547.584547  	41.349380 
2549.021425  	41.333562 
2550.458303  	41.343783 
2551.895181  	41.347170 
2553.332059  	41.335911 
2554.768937  	41.332313 
2556.205815  	41.329024 
2557.642693  	41.311045 
2559.079570  	41.242840 
2560.516448  	41.205638 
2561.953326  	41.242804 
2563.390204  	41.219861 
2564.827082  	41.202233 
2566.263960  	41.246719 
2567.700838  	41.200973 
2569.137716  	41.155213 
2570.574594  	41.201214 
2572.011472  	41.216555 
2573.448350  	41.195971 
2574.885228  	41.141723 
2576.322105  	41.080516 
2577.758983  	41.097562 
2579.195861  	41.114338 
2580.632739  	41.114856 
2582.069617  	41.148266 
2583.506495  	41.146761 
2584.943373  	41.137604 
2586.380251  	41.148407 
2587.817129  	41.086528 
2589.254007  	40.964399 
2590.690885  	40.899305 
2592.127763  	40.936647 
2593.564641  	40.983481 
2595.001518  	40.969147 
2596.438396  	40.949895 
2597.875274  	40.947229 
2599.312152  	40.954250 
2600.749030  	40.957304 
2602.185908  	40.921498 
2603.622786  	40.900612 
2605.059664  	40.902760 
2606.496542  	40.883676 
2607.933420  	40.888983 
2609.370298  	40.897148 
2610.807176  	40.876127 
2612.244053  	40.865681 
2613.680931  	40.851246 
2615.117809  	40.840550 
2616.554687  	40.828441 
2617.991565  	40.804814 
2619.428443  	40.837314 
2620.865321  	40.866483 
2622.302199  	40.827467 
2623.739077  	40.793504 
2625.175955  	40.758514 
2626.612833  	40.731834 
2628.049711  	40.746029 
2629.486588  	40.738477 
2630.923466  	40.727831 
2632.360344  	40.733930 
2633.797222  	40.711872 
2635.234100  	40.686666 
2636.670978  	40.668706 
2638.107856  	40.659340 
2639.544734  	40.657454 
2640.981612  	40.634197 
2642.418490  	40.634331 
2643.855368  	40.642318 
2645.292246  	40.605983 
2646.729123  	40.595669 
2648.166001  	40.602675 
2649.602879  	40.575384 
2651.039757  	40.560438 
2652.476635  	40.552400 
2653.913513  	40.542455 
2655.350391  	40.549779 
2656.787269  	40.540491 
2658.224147  	40.520216 
2659.661025  	40.513788 
2661.097903  	40.508761 
2662.534781  	40.498835 
2663.971658  	40.486769 
2665.408536  	40.484238 
2666.845414  	40.473642 
2668.282292  	40.452498 
2669.719170  	40.461416 
2671.156048  	40.461943 
2672.592926  	40.425923 
2674.029804  	40.396073 
2675.466682  	40.368736 
2676.903560  	40.367323 
2678.340438  	40.399052 
2679.777316  	40.392360 
2681.214193  	40.363938 
2682.651071  	40.355458 
2684.087949  	40.352603 
2685.524827  	40.355147 
2686.961705  	40.339893 
2688.398583  	40.309722 
2689.835461  	40.296509 
2691.272339  	40.295111 
2692.709217  	40.307959 
2694.146095  	40.301913 
2695.582973  	40.267172 
2697.019851  	40.265552 
2698.456728  	40.263621 
2699.893606  	40.227525 
2701.330484  	40.216749 
2702.767362  	40.221439 
2704.204240  	40.202631 
2705.641118  	40.179727 
2707.077996  	40.185810 
2708.514874  	40.203635 
2709.951752  	40.176383 
2711.388630  	40.143455 
2712.825508  	40.146133 
2714.262386  	40.128692 
2715.699263  	40.105685 
2717.136141  	40.099155 
2718.573019  	40.094132 
2720.009897  	40.119525 
2721.446775  	40.127168 
2722.883653  	40.098903 
2724.320531  	40.102992 
2725.757409  	40.095600 
2727.194287  	40.057877 
2728.631165  	40.040818 
2730.068043  	40.019738 
2731.504921  	39.996950 
2732.941798  	39.990268 
2734.378676  	39.992359 
2735.815554  	40.009130 
2737.252432  	40.005163 
2738.689310  	39.985510 
2740.126188  	39.979873 
2741.563066  	39.957987 
2742.999944  	39.939635 
2744.436822  	39.940815 
2745.873700  	39.932725 
2747.310578  	39.926913 
2748.747456  	39.915299 
2750.184333  	39.901980 
2751.621211  	39.904835 
2753.058089  	39.893132 
2754.494967  	39.877434 
2755.931845  	39.864151 
2757.368723  	39.841865 
2758.805601  	39.845633 
2760.242479  	39.845630 
2761.679357  	39.821378 
2763.116235  	39.817612 
2764.553113  	39.807496 
2765.989991  	39.787846 
2767.426868  	39.786597 
2768.863746  	39.760248 
2770.300624  	39.716584 
2771.737502  	39.703934 
2773.174380  	39.708499 
2774.611258  	39.704592 
2776.048136  	39.697349 
2777.485014  	39.703420 
2778.921892  	39.703572 
2780.358770  	39.684798 
2781.795648  	39.670114 
2783.232526  	39.652727 
2784.669403  	39.635784 
2786.106281  	39.624879 
2787.543159  	39.605582 
2788.980037  	39.601186 
2790.416915  	39.590783 
2791.853793  	39.573609 
2793.290671  	39.612105 
2794.727549  	39.629680 
2796.164427  	39.586048 
2797.601305  	39.572917 
2799.038183  	39.550744 
2800.475061  	39.505644 
2801.911938  	39.508898 
2803.348816  	39.504850 
2804.785694  	39.480732 
2806.222572  	39.487880 
2807.659450  	39.489105 
2809.096328  	39.469996 
2810.533206  	39.454166 
2811.970084  	39.454220 
2813.406962  	39.463488 
2814.843840  	39.438646 
2816.280718  	39.397640 
2817.717596  	39.387885 
2819.154474  	39.387237 
2820.591351  	39.383778 
2822.028229  	39.395153 
2823.465107  	39.412784 
2824.901985  	39.404598 
2826.338863  	39.366029 
2827.775741  	39.343666 
2829.212619  	39.347373 
2830.649497  	39.335995 
2832.086375  	39.301186 
2833.523253  	39.277761 
2834.960131  	39.298721 
2836.397009  	39.323768 
2837.833886  	39.303168 
2839.270764  	39.276487 
2840.707642  	39.260560 
2842.144520  	39.235164 
2843.581398  	39.225776 
2845.018276  	39.245418 
2846.455154  	39.272733 
2847.892032  	39.271591 
2849.328910  	39.247711 
2850.765788  	39.244902 
2852.202666  	39.235939 
2853.639544  	39.226015 
2855.076421  	39.254824 
2856.513299  	39.256270 
2857.950177  	39.228043 
2859.387055  	39.222176 
2860.823933  	39.207797 
2862.260811  	39.191054 
2863.697689  	39.169489 
2865.134567  	39.137749 
2866.571445  	39.150696 
2868.008323  	39.162367 
2869.445201  	39.138171 
2870.882079  	39.129592 
2872.318956  	39.110779 
2873.755834  	39.088046 
2875.192712  	39.093031 
2876.629590  	39.088612 
2878.066468  	39.079906 
2879.503346  	39.073129 
2880.940224  	39.064769 
2882.377102  	39.057415 
2883.813980  	39.024410 
2885.250858  	39.015752 
2886.687736  	39.036948 
2888.124614  	39.011434 
2889.561491  	39.000968 
2890.998369  	39.029460 
2892.435247  	39.017440 
2893.872125  	38.989238 
2895.309003  	38.966227 
2896.745881  	38.949490 
2898.182759  	38.959592 
2899.619637  	38.957803 
2901.056515  	38.959813 
2902.493393  	38.988623 
2903.930271  	38.988946 
2905.367149  	38.981738 
2906.804026  	38.994692 
2908.240904  	38.969785 
2909.677782  	38.913162 
2911.114660  	38.888900 
2912.551538  	38.884815 
2913.988416  	38.869100 
2915.425294  	38.882901 
2916.862172  	38.907346 
2918.299050  	38.876813 
2919.735928  	38.866885 
2921.172806  	38.903972 
2922.609684  	38.899991 
2924.046561  	38.897377 
2925.483439  	38.930479 
2926.920317  	38.938748 
2928.357195  	38.925106 
2929.794073  	38.912099 
2931.230951  	38.924935 
2932.667829  	38.953649 
2934.104707  	38.942068 
2935.541585  	38.921255 
2936.978463  	38.921678 
2938.415341  	38.932774 
2939.852219  	38.961345 
2941.289096  	38.948503 
2942.725974  	38.889308 
2944.162852  	38.868749 
2945.599730  	38.879578 
2947.036608  	38.880596 
2948.473486  	38.869708 
2949.910364  	38.853299 
2951.347242  	38.832937 
2952.784120  	38.790236 
2954.220998  	38.738086 
2955.657876  	38.687221 
2957.094754  	38.655455 
2958.531631  	38.681640 
2959.968509  	38.685314 
2961.405387  	38.648550 
2962.842265  	38.672960 
2964.279143  	38.691696 
2965.716021  	38.670181 
2967.152899  	38.691393 
2968.589777  	38.714585 
2970.026655  	38.711106 
2971.463533  	38.705329 
2972.900411  	38.732084 
2974.337289  	38.810461 
2975.774166  	38.824236 
2977.211044  	38.802636 
2978.647922  	38.864038 
2980.084800  	38.885051 
2981.521678  	38.873063 
2982.958556  	38.950593 
2984.395434  	39.005140 
2985.832312  	39.004920 
2987.269190  	39.030940 
2988.706068  	39.030485 
2990.142946  	38.967159 
2991.579824  	38.930777 
2993.016701  	38.975376 
2994.453579  	38.974973 
2995.890457  	38.908602 
2997.327335  	38.934099 
2998.764213  	38.951160 
3000.201091  	38.881732 
3001.637969  	38.895178 
3003.074847  	38.920690 
3004.511725  	38.877835 
3005.948603  	38.887458 
3007.385481  	38.894853 
3008.822359  	38.846585 
3010.259236  	38.816864 
3011.696114  	38.825278 
3013.132992  	38.857033 
3014.569870  	38.854065 
3016.006748  	38.820480 
3017.443626  	38.806055 
3018.880504  	38.795745 
3020.317382  	38.815828 
3021.754260  	38.824799 
3023.191138  	38.779739 
3024.628016  	38.762147 
3026.064894  	38.727506 
3027.501771  	38.687280 
3028.938649  	38.744516 
3030.375527  	38.783357 
3031.812405  	38.777282 
3033.249283  	38.798877 
3034.686161  	38.779378 
3036.123039  	38.744381 
3037.559917  	38.733275 
3038.996795  	38.730350 
3040.433673  	38.749758 
3041.870551  	38.726714 
3043.307429  	38.684346 
3044.744306  	38.679935 
3046.181184  	38.670022 
3047.618062  	38.697583 
3049.054940  	38.724512 
3050.491818  	38.694515 
3051.928696  	38.710168 
3053.365574  	38.725113 
3054.802452  	38.700575 
3056.239330  	38.702784 
3057.676208  	38.668631 
3059.113086  	38.634091 
3060.549964  	38.657106 
3061.986842  	38.669781 
3063.423719  	38.686789 
3064.860597  	38.674278 
3066.297475  	38.623856 
3067.734353  	38.640793 
3069.171231  	38.669432 
3070.608109  	38.652206 
3072.044987  	38.610703 
3073.481865  	38.550173 
3074.918743  	38.561209 
3076.355621  	38.607874 
3077.792499  	38.574514 
3079.229377  	38.551622 
3080.666254  	38.600617 
3082.103132  	38.649488 
3083.540010  	38.649827 
3084.976888  	38.613498 
3086.413766  	38.589950 
3087.850644  	38.557784 
3089.287522  	38.495533 
3090.724400  	38.464786 
3092.161278  	38.487642 
3093.598156  	38.530204 
3095.035034  	38.527651 
3096.471912  	38.501643 
3097.908789  	38.539264 
3099.345667  	38.562607 
3100.782545  	38.529657 
3102.219423  	38.522847 
3103.656301  	38.520089 
3105.093179  	38.500292 
3106.530057  	38.481264 
3107.966935  	38.485269 
3109.403813  	38.517007 
3110.840691  	38.485119 
3112.277569  	38.460994 
3113.714447  	38.517035 
3115.151324  	38.476945 
3116.588202  	38.387983 
3118.025080  	38.384024 
3119.461958  	38.391703 
3120.898836  	38.430412 
3122.335714  	38.451253 
3123.772592  	38.421295 
3125.209470  	38.464567 
3126.646348  	38.473200 
3128.083226  	38.414748 
3129.520104  	38.436838 
3130.956982  	38.453935 
3132.393859  	38.429481 
3133.830737  	38.422621 
3135.267615  	38.403352 
3136.704493  	38.387081 
3138.141371  	38.360725 
3139.578249  	38.346963 
3141.015127  	38.353306 
3142.452005  	38.295343 
3143.888883  	38.284475 
3145.325761  	38.351845 
3146.762639  	38.339371 
3148.199517  	38.291649 
3149.636394  	38.253594 
3151.073272  	38.231345 
3152.510150  	38.262376 
3153.947028  	38.246875 
3155.383906  	38.228388 
3156.820784  	38.280681 
3158.257662  	38.281736 
3159.694540  	38.252366 
3161.131418  	38.243928 
3162.568296  	38.210438 
3164.005174  	38.174863 
3165.442052  	38.156237 
3166.878929  	38.175777 
3168.315807  	38.191541 
3169.752685  	38.164516 
3171.189563  	38.168647 
3172.626441  	38.142606 
3174.063319  	38.084481 
3175.500197  	38.101275 
3176.937075  	38.099003 
3178.373953  	38.091773 
3179.810831  	38.138424 
3181.247709  	38.147816 
3182.684587  	38.170722 
3184.121464  	38.179916 
3185.558342  	38.128334 
3186.995220  	38.132184 
3188.432098  	38.146723 
3189.868976  	38.176577 
3191.305854  	38.231985 
3192.742732  	38.172360 
3194.179610  	38.133932 
3195.616488  	38.181414 
3197.053366  	38.173045 
3198.490244  	38.198964 
3199.927122  	38.244862 
3201.363999  	38.245419 
3202.800877  	38.273562 
3204.237755  	38.267664 
3205.674633  	38.262891 
3207.111511  	38.308477 
3208.548389  	38.312809 
3209.985267  	38.312923 
3211.422145  	38.304474 
3212.859023  	38.303706 
3214.295901  	38.386946 
3215.732779  	38.421224 
3217.169657  	38.381076 
3218.606534  	38.374455 
3220.043412  	38.421581 
3221.480290  	38.492846 
3222.917168  	38.451539 
3224.354046  	38.399754 
3225.790924  	38.483967 
3227.227802  	38.500356 
3228.664680  	38.513263 
3230.101558  	38.618496 
3231.538436  	38.601846 
3232.975314  	38.578987 
3234.412192  	38.616564 
3235.849069  	38.575651 
3237.285947  	38.587908 
3238.722825  	38.643841 
3240.159703  	38.651196 
3241.596581  	38.648445 
3243.033459  	38.636725 
3244.470337  	38.749706 
3245.907215  	38.875537 
3247.344093  	38.784117 
3248.780971  	38.749113 
3250.217849  	38.854337 
3251.654727  	38.867591 
3253.091604  	38.820705 
3254.528482  	38.770238 
3255.965360  	38.756792 
3257.402238  	38.802724 
3258.839116  	38.827777 
3260.275994  	38.879057 
3261.712872  	38.916474 
3263.149750  	38.849591 
3264.586628  	38.811041 
3266.023506  	38.841681 
3267.460384  	38.867459 
3268.897262  	38.876594 
3270.334139  	38.871290 
3271.771017  	38.894295 
3273.207895  	38.929715 
3274.644773  	38.925354 
3276.081651  	38.907341 
3277.518529  	38.906853 
3278.955407  	38.915512 
3280.392285  	38.881494 
3281.829163  	38.858934 
3283.266041  	38.921079 
3284.702919  	38.938135 
3286.139797  	38.915749 
3287.576674  	38.935233 
3289.013552  	38.902958 
3290.450430  	38.900339 
3291.887308  	38.970208 
3293.324186  	38.962510 
3294.761064  	38.946406 
3296.197942  	38.956073 
3297.634820  	38.907339 
3299.071698  	38.862726 
3300.508576  	38.836177 
3301.945454  	38.825092 
3303.382332  	38.862969 
3304.819210  	38.911530 
3306.256087  	38.934076 
3307.692965  	38.878100 
3309.129843  	38.805453 
3310.566721  	38.831533 
3312.003599  	38.866954 
3313.440477  	38.872291 
3314.877355  	38.875896 
3316.314233  	38.841092 
3317.751111  	38.819942 
3319.187989  	38.835084 
3320.624867  	38.863078 
3322.061745  	38.871824 
3323.498622  	38.792662 
3324.935500  	38.724143 
3326.372378  	38.728943 
3327.809256  	38.744540 
3329.246134  	38.793865 
3330.683012  	38.791231 
3332.119890  	38.740984 
3333.556768  	38.770987 
3334.993646  	38.768132 
3336.430524  	38.746802 
3337.867402  	38.797928 
3339.304280  	38.798260 
3340.741157  	38.774667 
3342.178035  	38.748035 
3343.614913  	38.716599 
3345.051791  	38.776853 
3346.488669  	38.771071 
3347.925547  	38.681901 
3349.362425  	38.704406 
3350.799303  	38.764672 
3352.236181  	38.831216 
3353.673059  	38.872448 
3355.109937  	38.819904 
3356.546815  	38.824207 
3357.983692  	38.817376 
3359.420570  	38.723750 
3360.857448  	38.723537 
3362.294326  	38.755530 
3363.731204  	38.786620 
3365.168082  	38.849879 
3366.604960  	38.800668 
3368.041838  	38.761996 
3369.478716  	38.834257 
3370.915594  	38.838912 
3372.352472  	38.802526 
3373.789350  	38.830178 
3375.226227  	38.888019 
3376.663105  	38.890026 
3378.099983  	38.835516 
3379.536861  	38.845898 
3380.973739  	38.881980 
3382.410617  	38.888223 
3383.847495  	38.932848 
3385.284373  	38.975681 
3386.721251  	39.034249 
3388.158129  	39.077330 
3389.595007  	39.007210 
3391.031885  	38.961597 
3392.468762  	38.925150 
3393.905640  	38.845714 
3395.342518  	38.909203 
3396.779396  	38.983031 
3398.216274  	38.953968 
3399.653152  	38.970087 
3401.090030  	38.955776 
3402.526908  	38.945457 
3403.963786  	39.057754 
3405.400664  	39.132626 
3406.837542  	39.115448 
3408.274420  	39.084074 
3409.711297  	39.078663 
3411.148175  	39.126801 
3412.585053  	39.171255 
3414.021931  	39.184817 
3415.458809  	39.158577 
3416.895687  	39.112799 
3418.332565  	39.130898 
3419.769443  	39.161384 
3421.206321  	39.190713 
3422.643199  	39.256612 
3424.080077  	39.277189 
3425.516955  	39.293316 
3426.953832  	39.328331 
3428.390710  	39.333521 
3429.827588  	39.363372 
3431.264466  	39.375122 
3432.701344  	39.382873 
3434.138222  	39.453389 
3435.575100  	39.498099 
3437.011978  	39.547538 
3438.448856  	39.544646 
3439.885734  	39.414253 
3441.322612  	39.402460 
3442.759490  	39.477577 
3444.196367  	39.485869 
3445.633245  	39.578641 
3447.070123  	39.677542 
3448.507001  	39.672574 
3449.943879  	39.656503 
3451.380757  	39.626420 
3452.817635  	39.666470 
3454.254513  	39.732689 
3455.691391  	39.698516 
3457.128269  	39.715603 
3458.565147  	39.738739 
3460.002025  	39.660234 
3461.438902  	39.679109 
3462.875780  	39.808281 
3464.312658  	39.903353 
3465.749536  	39.951927 
3467.186414  	39.959324 
3468.623292  	39.937983 
3470.060170  	39.937759 
3471.497048  	40.006882 
3472.933926  	40.035431 
3474.370804  	39.947368 
3475.807682  	39.974539 
3477.244560  	40.107864 
3478.681437  	40.110764 
3480.118315  	40.072995 
3481.555193  	40.081928 
3482.992071  	40.151854 
3484.428949  	40.276221 
3485.865827  	40.246136 
3487.302705  	40.145557 
3488.739583  	40.229118 
3490.176461  	40.328630 
3491.613339  	40.292192 
3493.050217  	40.222957 
3494.487095  	40.209259 
3495.923972  	40.292466 
3497.360850  	40.386327 
3498.797728  	40.389018 
3500.234606  	40.318945 
3501.671484  	40.262940 
3503.108362  	40.352133 
3504.545240  	40.504286 
3505.982118  	40.516171 
3507.418996  	40.493278 
3508.855874  	40.574796 
3510.292752  	40.673417 
3511.729630  	40.685637 
3513.166507  	40.679603 
3514.603385  	40.681440 
3516.040263  	40.631640 
3517.477141  	40.620490 
3518.914019  	40.705221 
3520.350897  	40.742153 
3521.787775  	40.727944 
3523.224653  	40.718762 
3524.661531  	40.680523 
3526.098409  	40.708941 
3527.535287  	40.821532 
3528.972165  	40.888522 
3530.409043  	40.910160 
3531.845920  	40.931666 
3533.282798  	40.898999 
3534.719676  	40.818520 
3536.156554  	40.823742 
3537.593432  	40.974454 
3539.030310  	41.112430 
3540.467188  	41.139499 
3541.904066  	41.052973 
3543.340944  	40.945993 
3544.777822  	40.977660 
3546.214700  	41.053086 
3547.651578  	41.066155 
3549.088455  	41.130135 
3550.525333  	41.151695 
3551.962211  	41.150457 
3553.399089  	41.268698 
3554.835967  	41.295671 
3556.272845  	41.220738 
3557.709723  	41.249700 
3559.146601  	41.305680 
3560.583479  	41.348415 
3562.020357  	41.426800 
3563.457235  	41.454848 
3564.894113  	41.425150 
3566.330990  	41.404610 
3567.767868  	41.464467 
3569.204746  	41.558028 
3570.641624  	41.523351 
3572.078502  	41.443696 
3573.515380  	41.446994 
3574.952258  	41.515448 
3576.389136  	41.584234 
3577.826014  	41.641527 
3579.262892  	41.720005 
3580.699770  	41.787610 
3582.136648  	41.788129 
3583.573525  	41.791084 
3585.010403  	41.842895 
3586.447281  	41.915253 
3587.884159  	41.982050 
3589.321037  	42.012561 
3590.757915  	42.052733 
3592.194793  	42.089377 
3593.631671  	42.064444 
3595.068549  	42.048959 
3596.505427  	42.130614 
3597.942305  	42.233723 
3599.379183  	42.265073 
3600.816060  	42.265863 
3602.252938  	42.350734 
3603.689816  	42.419782 
3605.126694  	42.395035 
3606.563572  	42.445892 
3608.000450  	42.588792 
3609.437328  	42.648461 
3610.874206  	42.630572 
3612.311084  	42.608486 
3613.747962  	42.616668 
3615.184840  	42.654637 
3616.621718  	42.653595 
3618.058595  	42.666931 
3619.495473  	42.737477 
3620.932351  	42.838963 
3622.369229  	42.907725 
3623.806107  	42.897057 
3625.242985  	42.885059 
3626.679863  	42.892902 
3628.116741  	42.835890 
3629.553619  	42.867672 
3630.990497  	43.028830 
3632.427375  	43.026828 
3633.864253  	43.041005 
3635.301130  	43.097197 
3636.738008  	43.090539 
3638.174886  	43.056741 
3639.611764  	43.050401 
3641.048642  	43.105329 
3642.485520  	43.148553 
3643.922398  	43.135109 
3645.359276  	43.123090 
3646.796154  	43.132527 
3648.233032  	43.141547 
3649.669910  	43.176432 
3651.106788  	43.183971 
3652.543665  	43.153541 
3653.980543  	43.113089 
3655.417421  	43.053433 
3656.854299  	43.052009 
3658.291177  	43.095621 
3659.728055  	43.081101 
3661.164933  	43.082748 
3662.601811  	43.090328 
3664.038689  	43.067205 
3665.475567  	43.058163 
3666.912445  	43.055960 
3668.349323  	43.050717 
3669.786200  	43.096474 
3671.223078  	43.079364 
3672.659956  	42.929673 
3674.096834  	42.829973 
3675.533712  	42.840676 
3676.970590  	42.895311 
3678.407468  	42.819153 
3679.844346  	42.813048 
3681.281224  	42.861417 
3682.718102  	42.809330 
3684.154980  	42.744520 
3685.591858  	42.774238 
3687.028735  	42.744099 
3688.465613  	42.743573 
3689.902491  	42.794930 
3691.339369  	42.741149 
3692.776247  	42.704818 
3694.213125  	42.648926 
3695.650003  	42.595313 
3697.086881  	42.629715 
3698.523759  	42.637259 
3699.960637  	42.585906 
3701.397515  	42.529817 
3702.834393  	42.466656 
3704.271270  	42.490827 
3705.708148  	42.553470 
3707.145026  	42.546137 
3708.581904  	42.513497 
3710.018782  	42.507587 
3711.455660  	42.475949 
3712.892538  	42.430186 
3714.329416  	42.451653 
3715.766294  	42.447825 
3717.203172  	42.353425 
3718.640050  	42.301414 
3720.076928  	42.394883 
3721.513805  	42.444316 
3722.950683  	42.367731 
3724.387561  	42.303075 
3725.824439  	42.289490 
3727.261317  	42.289911 
3728.698195  	42.283119 
3730.135073  	42.259982 
3731.571951  	42.230236 
3733.008829  	42.175624 
3734.445707  	42.088585 
3735.882585  	41.998781 
3737.319463  	42.044331 
3738.756340  	42.124896 
3740.193218  	42.100297 
3741.630096  	42.067312 
3743.066974  	42.130806 
3744.503852  	42.313302 
3745.940730  	42.361260 
3747.377608  	42.203168 
3748.814486  	42.140215 
3750.251364  	42.145003 
3751.688242  	42.134080 
3753.125120  	42.197145 
3754.561998  	42.191705 
3755.998875  	42.069693 
3757.435753  	42.007356 
3758.872631  	42.020939 
3760.309509  	42.035381 
3761.746387  	42.115204 
3763.183265  	42.158113 
3764.620143  	42.131332 
3766.057021  	42.068366 
3767.493899  	41.973059 
3768.930777  	41.918219 
3770.367655  	41.923913 
3771.804533  	41.958241 
3773.241411  	41.998004 
3774.678288  	41.990143 
3776.115166  	41.938598 
3777.552044  	41.920169 
3778.988922  	41.928677 
3780.425800  	41.970231 
3781.862678  	41.967297 
3783.299556  	41.909848 
3784.736434  	41.918411 
3786.173312  	41.889646 
3787.610190  	41.772233 
3789.047068  	41.770409 
3790.483946  	41.807777 
3791.920823  	41.766476 
3793.357701  	41.788175 
3794.794579  	41.843360 
3796.231457  	41.824925 
3797.668335  	41.784333 
3799.105213  	41.779631 
3800.542091  	41.792729 
3801.978969  	41.780632 
3803.415847  	41.718112 
3804.852725  	41.681998 
3806.289603  	41.674670 
3807.726481  	41.710340 
3809.163358  	41.726715 
3810.600236  	41.723785 
3812.037114  	41.748354 
3813.473992  	41.705374 
3814.910870  	41.630498 
3816.347748  	41.707240 
3817.784626  	41.803498 
3819.221504  	41.713847 
3820.658382  	41.591351 
3822.095260  	41.558479 
3823.532138  	41.621223 
3824.969016  	41.625524 
3826.405893  	41.644167 
3827.842771  	41.685211 
3829.279649  	41.640469 
3830.716527  	41.597994 
3832.153405  	41.637518 
3833.590283  	41.665545 
3835.027161  	41.664760 
3836.464039  	41.644816 
3837.900917  	41.601437 
3839.337795  	41.638972 
3840.774673  	41.658250 
3842.211551  	41.581228 
3843.648428  	41.524737 
3845.085306  	41.518534 
3846.522184  	41.549151 
3847.959062  	41.614185 
3849.395940  	41.647468 
3850.832818  	41.569070 
3852.269696  	41.474616 
3853.706574  	41.588751 
3855.143452  	41.688565 
3856.580330  	41.548497 
3858.017208  	41.507154 
3859.454086  	41.537338 
3860.890963  	41.539688 
3862.327841  	41.513342 
3863.764719  	41.475806 
3865.201597  	41.533035 
3866.638475  	41.583394 
3868.075353  	41.456602 
3869.512231  	41.406860 
3870.949109  	41.585377 
3872.385987  	41.575802 
3873.822865  	41.504882 
3875.259743  	41.521680 
3876.696621  	41.497340 
3878.133498  	41.442787 
3879.570376  	41.389287 
3881.007254  	41.378593 
3882.444132  	41.450765 
3883.881010  	41.450165 
3885.317888  	41.413839 
3886.754766  	41.491036 
3888.191644  	41.519012 
3889.628522  	41.431616 
3891.065400  	41.388169 
3892.502278  	41.479148 
3893.939156  	41.486678 
3895.376033  	41.391746 
3896.812911  	41.368960 
3898.249789  	41.400519 
3899.686667  	41.383040 
3901.123545  	41.386638 
3902.560423  	41.440738 
3903.997301  	41.441503 
3905.434179  	41.372178 
3906.871057  	41.312279 
3908.307935  	41.294395 
3909.744813  	41.306385 
3911.181691  	41.340213 
3912.618568  	41.360558 
3914.055446  	41.375739 
3915.492324  	41.369342 
3916.929202  	41.356985 
3918.366080  	41.334619 
3919.802958  	41.346350 
3921.239836  	41.354634 
3922.676714  	41.330935 
3924.113592  	41.315329 
3925.550470  	41.290692 
3926.987348  	41.262834 
3928.424226  	41.252506 
3929.861103  	41.240563 
3931.297981  	41.257033 
3932.734859  	41.301699 
3934.171737  	41.325500 
3935.608615  	41.327577 
3937.045493  	41.314863 
3938.482371  	41.302129 
3939.919249  	41.286815 
3941.356127  	41.261304 
3942.793005  	41.254349 
3944.229883  	41.262048 
3945.666761  	41.258372 
3947.103638  	41.265755 
3948.540516  	41.264756 
3949.977394  	41.246369 
3951.414272  	41.275465 
3952.851150  	41.306962 
3954.288028  	41.274485 
3955.724906  	41.245147 
3957.161784  	41.273581 
3958.598662  	41.294452 
3960.035540  	41.243105 
3961.472418  	41.231826 
3962.909296  	41.269019 
3964.346173  	41.273569 
3965.783051  	41.252108 
3967.219929  	41.227151 
3968.656807  	41.235024 
3970.093685  	41.265697 
3971.530563  	41.228994 
3972.967441  	41.193657 
3974.404319  	41.226185 
3975.841197  	41.227825 
3977.278075  	41.218009 
3978.714953  	41.237620 
3980.151831  	41.248420 
3981.588708  	41.262041 
3983.025586  	41.225687 
3984.462464  	41.151966 
3985.899342  	41.143021 
3987.336220  	41.145325 
3988.773098  	41.142029 
3990.209976  	41.164080 
3991.646854  	41.148424 
3993.083732  	41.140644 
3994.520610  	41.177061 
3995.957488  	41.186225 
3997.394366  	41.183687 
3998.831244  	41.191387 
4000.268121  	41.195814 