##TITLE=No Description
##DATA TYPE=INFRARED SPECTRUM
##XUNITS=1/CM
##YUNITS=%T
399.452061  	15.550814 
400.888939  	15.309602 
402.325817  	14.872688 
403.762695  	14.394480 
405.199573  	14.398292 
406.636451  	14.589094 
408.073328  	14.743221 
409.510206  	14.313420 
410.947084  	13.641555 
412.383962  	13.736968 
413.820840  	14.361022 
415.257718  	14.186880 
416.694596  	13.361846 
418.131474  	13.526037 
419.568352  	14.364524 
421.005230  	13.908428 
422.442108  	13.495041 
423.878986  	13.536131 
425.315863  	13.304869 
426.752741  	13.102099 
428.189619  	13.273516 
429.626497  	13.592681 
431.063375  	13.679555 
432.500253  	13.374172 
433.937131  	13.364794 
435.374009  	13.741812 
436.810887  	13.764859 
438.247765  	13.416937 
439.684643  	13.222695 
441.121521  	13.563775 
442.558398  	13.959144 
443.995276  	13.592738 
445.432154  	12.999460 
446.869032  	12.686893 
448.305910  	12.688440 
449.742788  	12.892550 
451.179666  	12.769561 
452.616544  	12.533087 
454.053422  	12.369805 
455.490300  	11.817963 
456.927178  	11.444758 
458.364056  	11.501697 
459.800933  	11.305592 
461.237811  	11.188365 
462.674689  	10.805762 
464.111567  	9.790154 
465.548445  	8.454986 
466.985323  	6.927605 
468.422201  	7.074808 
469.859079  	9.348930 
471.295957  	11.330412 
472.732835  	12.182509 
474.169713  	12.680827 
475.606591  	12.882511 
477.043469  	12.927108 
478.480346  	12.766932 
479.917224  	12.449599 
481.354102  	12.312678 
482.790980  	12.164428 
484.227858  	12.094208 
485.664736  	12.123062 
487.101614  	11.913722 
488.538492  	11.933914 
489.975370  	12.203972 
491.412248  	12.144358 
492.849126  	12.013774 
494.286004  	11.991636 
495.722881  	11.816705 
497.159759  	11.683200 
498.596637  	11.709924 
500.033515  	11.756859 
501.470393  	11.811214 
502.907271  	11.966155 
504.344149  	12.070278 
505.781027  	11.799732 
507.217905  	11.460967 
508.654783  	11.577317 
510.091661  	11.694467 
511.528539  	11.491042 
512.965416  	11.358671 
514.402294  	11.462035 
515.839172  	11.568730 
517.276050  	11.535570 
518.712928  	11.500939 
520.149806  	11.594904 
521.586684  	11.692023 
523.023562  	11.694050 
524.460440  	11.554143 
525.897318  	11.406201 
527.334196  	11.524238 
528.771074  	11.594878 
530.207951  	11.408060 
531.644829  	11.368729 
533.081707  	11.467385 
534.518585  	11.349942 
535.955463  	11.157768 
537.392341  	11.111891 
538.829219  	11.146679 
540.266097  	11.162224 
541.702975  	11.165099 
543.139853  	11.154309 
544.576731  	11.084522 
546.013609  	11.047586 
547.450486  	11.048422 
548.887364  	10.944660 
550.324242  	10.914152 
551.761120  	11.018535 
553.197998  	10.936822 
554.634876  	10.684330 
556.071754  	10.515733 
557.508632  	10.483160 
558.945510  	10.531301 
560.382388  	10.483615 
561.819266  	10.323682 
563.256144  	10.253411 
564.693021  	10.231202 
566.129899  	10.200423 
567.566777  	10.214516 
569.003655  	10.131750 
570.440533  	9.959424 
571.877411  	9.892219 
573.314289  	9.900044 
574.751167  	9.865153 
576.188045  	9.729338 
577.624923  	9.584554 
579.061801  	9.592544 
580.498679  	9.603133 
581.935556  	9.481492 
583.372434  	9.423648 
584.809312  	9.416296 
586.246190  	9.348390 
587.683068  	9.328978 
589.119946  	9.339858 
590.556824  	9.311910 
591.993702  	9.282179 
593.430580  	9.210300 
594.867458  	9.166570 
596.304336  	9.237688 
597.741214  	9.281623 
599.178091  	9.246807 
600.614969  	9.231910 
602.051847  	9.240056 
603.488725  	9.272515 
604.925603  	9.319759 
606.362481  	9.360345 
607.799359  	9.367040 
609.236237  	9.356437 
610.673115  	9.341400 
612.109993  	9.321682 
613.546871  	9.317129 
614.983749  	9.312299 
616.420626  	9.318434 
617.857504  	9.335222 
619.294382  	9.310158 
620.731260  	9.255534 
622.168138  	9.253091 
623.605016  	9.268581 
625.041894  	9.200300 
626.478772  	9.150331 
627.915650  	9.166484 
629.352528  	9.190792 
630.789406  	9.232049 
632.226284  	9.289389 
633.663161  	9.349288 
635.100039  	9.424783 
636.536917  	9.487651 
637.973795  	9.514761 
639.410673  	9.506851 
640.847551  	9.501959 
642.284429  	9.532874 
643.721307  	9.586389 
645.158185  	9.631011 
646.595063  	9.648859 
648.031941  	9.664224 
649.468819  	9.638055 
650.905696  	9.596287 
652.342574  	9.592064 
653.779452  	9.605210 
655.216330  	9.604346 
656.653208  	9.598406 
658.090086  	9.593768 
659.526964  	9.595826 
660.963842  	9.586612 
662.400720  	9.546249 
663.837598  	9.499742 
665.274476  	9.382111 
666.711354  	9.276163 
668.148231  	9.422441 
669.585109  	9.646116 
671.021987  	9.556675 
672.458865  	9.490718 
673.895743  	9.496754 
675.332621  	9.522525 
676.769499  	9.550840 
678.206377  	9.557109 
679.643255  	9.556897 
681.080133  	9.598040 
682.517011  	9.645510 
683.953889  	9.679040 
685.390766  	9.707585 
686.827644  	9.713592 
688.264522  	9.709693 
689.701400  	9.692536 
691.138278  	9.688302 
692.575156  	9.694539 
694.012034  	9.680776 
695.448912  	9.626075 
696.885790  	9.608419 
698.322668  	9.587108 
699.759546  	9.529173 
701.196424  	9.466996 
702.633301  	9.443665 
704.070179  	9.462479 
705.507057  	9.427769 
706.943935  	9.384726 
708.380813  	9.422667 
709.817691  	9.446305 
711.254569  	9.414658 
712.691447  	9.379121 
714.128325  	9.341746 
715.565203  	9.314887 
717.002081  	9.275548 
718.438959  	9.203615 
719.875837  	9.155743 
721.312714  	9.130527 
722.749592  	9.122087 
724.186470  	9.135785 
725.623348  	9.120362 
727.060226  	9.094103 
728.497104  	9.085936 
729.933982  	9.072138 
731.370860  	9.062241 
732.807738  	9.053357 
734.244616  	9.034953 
735.681494  	9.007742 
737.118372  	8.951419 
738.555249  	8.917158 
739.992127  	8.938351 
741.429005  	8.941971 
742.865883  	8.920916 
744.302761  	8.907511 
745.739639  	8.878207 
747.176517  	8.840957 
748.613395  	8.823598 
750.050273  	8.807873 
751.487151  	8.778933 
752.924029  	8.762360 
754.360907  	8.757735 
755.797784  	8.753107 
757.234662  	8.780761 
758.671540  	8.795164 
760.108418  	8.743303 
761.545296  	8.714942 
762.982174  	8.719170 
764.419052  	8.703852 
765.855930  	8.722123 
767.292808  	8.744891 
768.729686  	8.750640 
770.166564  	8.795329 
771.603442  	8.794887 
773.040319  	8.740755 
774.477197  	8.748744 
775.914075  	8.770922 
777.350953  	8.749677 
778.787831  	8.722936 
780.224709  	8.709130 
781.661587  	8.731978 
783.098465  	8.754996 
784.535343  	8.732472 
785.972221  	8.735989 
787.409099  	8.797664 
788.845977  	8.830020 
790.282854  	8.799097 
791.719732  	8.802358 
793.156610  	8.874073 
794.593488  	8.911212 
796.030366  	8.906228 
797.467244  	8.905824 
798.904122  	8.883090 
800.341000  	8.894714 
801.777878  	8.957529 
803.214756  	8.959417 
804.651634  	8.925753 
806.088512  	8.941882 
807.525389  	8.977552 
808.962267  	8.990946 
810.399145  	8.976959 
811.836023  	8.969155 
813.272901  	8.985320 
814.709779  	8.992965 
816.146657  	8.994184 
817.583535  	9.001131 
819.020413  	9.017153 
820.457291  	9.042264 
821.894169  	9.041235 
823.331047  	9.043687 
824.767924  	9.070449 
826.204802  	9.058435 
827.641680  	9.067284 
829.078558  	9.148905 
830.515436  	9.180710 
831.952314  	9.156138 
833.389192  	9.175997 
834.826070  	9.208138 
836.262948  	9.206982 
837.699826  	9.199952 
839.136704  	9.194891 
840.573582  	9.187709 
842.010459  	9.187202 
843.447337  	9.183638 
844.884215  	9.159317 
846.321093  	9.138621 
847.757971  	9.152667 
849.194849  	9.164123 
850.631727  	9.128868 
852.068605  	9.084317 
853.505483  	9.079783 
854.942361  	9.092223 
856.379239  	9.100261 
857.816117  	9.126181 
859.252994  	9.142090 
860.689872  	9.116013 
862.126750  	9.094896 
863.563628  	9.096629 
865.000506  	9.091368 
866.437384  	9.069294 
867.874262  	9.027293 
869.311140  	8.996606 
870.748018  	8.999381 
872.184896  	8.995307 
873.621774  	8.975277 
875.058652  	8.957453 
876.495529  	8.944730 
877.932407  	8.946052 
879.369285  	8.944391 
880.806163  	8.931604 
882.243041  	8.920772 
883.679919  	8.893341 
885.116797  	8.869381 
886.553675  	8.889667 
887.990553  	8.924125 
889.427431  	8.920096 
890.864309  	8.865130 
892.301187  	8.816029 
893.738064  	8.819575 
895.174942  	8.820511 
896.611820  	8.799370 
898.048698  	8.797394 
899.485576  	8.790900 
900.922454  	8.764473 
902.359332  	8.741817 
903.796210  	8.729804 
905.233088  	8.738904 
906.669966  	8.747436 
908.106844  	8.731161 
909.543722  	8.717272 
910.980599  	8.703366 
912.417477  	8.674966 
913.854355  	8.661166 
915.291233  	8.665370 
916.728111  	8.666123 
918.164989  	8.668569 
919.601867  	8.686444 
921.038745  	8.715954 
922.475623  	8.737581 
923.912501  	8.749093 
925.349379  	8.768101 
926.786257  	8.787787 
928.223134  	8.796230 
929.660012  	8.807043 
931.096890  	8.806079 
932.533768  	8.784393 
933.970646  	8.800902 
935.407524  	8.852622 
936.844402  	8.860882 
938.281280  	8.838871 
939.718158  	8.817128 
941.155036  	8.775692 
942.591914  	8.745238 
944.028792  	8.730324 
945.465670  	8.698198 
946.902547  	8.685566 
948.339425  	8.698506 
949.776303  	8.695208 
951.213181  	8.687992 
952.650059  	8.692552 
954.086937  	8.693999 
955.523815  	8.683950 
956.960693  	8.690002 
958.397571  	8.722814 
959.834449  	8.723368 
961.271327  	8.715734 
962.708205  	8.764917 
964.145082  	8.790622 
965.581960  	8.767231 
967.018838  	8.767906 
968.455716  	8.763359 
969.892594  	8.747787 
971.329472  	8.760358 
972.766350  	8.767587 
974.203228  	8.767062 
975.640106  	8.765759 
977.076984  	8.743721 
978.513862  	8.732838 
979.950740  	8.740243 
981.387617  	8.736022 
982.824495  	8.726514 
984.261373  	8.718396 
985.698251  	8.712524 
987.135129  	8.714499 
988.572007  	8.729449 
990.008885  	8.766503 
991.445763  	8.807016 
992.882641  	8.810025 
994.319519  	8.773527 
995.756397  	8.758561 
997.193275  	8.791586 
998.630152  	8.812449 
1000.067030  	8.803260 
1001.503908  	8.780665 
1002.940786  	8.735428 
1004.377664  	8.717588 
1005.814542  	8.729308 
1007.251420  	8.692274 
1008.688298  	8.644794 
1010.125176  	8.632382 
1011.562054  	8.609743 
1012.998932  	8.574738 
1014.435810  	8.528638 
1015.872687  	8.474838 
1017.309565  	8.441674 
1018.746443  	8.400481 
1020.183321  	8.360937 
1021.620199  	8.364790 
1023.057077  	8.360506 
1024.493955  	8.317280 
1025.930833  	8.270404 
1027.367711  	8.232761 
1028.804589  	8.204300 
1030.241467  	8.183536 
1031.678345  	8.162082 
1033.115222  	8.129187 
1034.552100  	8.095790 
1035.988978  	8.082099 
1037.425856  	8.070749 
1038.862734  	8.064887 
1040.299612  	8.070779 
1041.736490  	8.063749 
1043.173368  	8.084757 
1044.610246  	8.126622 
1046.047124  	8.114451 
1047.484002  	8.102437 
1048.920880  	8.124900 
1050.357757  	8.129800 
1051.794635  	8.141890 
1053.231513  	8.159859 
1054.668391  	8.156969 
1056.105269  	8.165733 
1057.542147  	8.180954 
1058.979025  	8.201989 
1060.415903  	8.245576 
1061.852781  	8.273670 
1063.289659  	8.269679 
1064.726537  	8.269218 
1066.163415  	8.295452 
1067.600292  	8.317324 
1069.037170  	8.313532 
1070.474048  	8.333664 
1071.910926  	8.361560 
1073.347804  	8.335599 
1074.784682  	8.305747 
1076.221560  	8.318611 
1077.658438  	8.339590 
1079.095316  	8.343247 
1080.532194  	8.343841 
1081.969072  	8.364162 
1083.405950  	8.357901 
1084.842827  	8.305890 
1086.279705  	8.298383 
1087.716583  	8.322319 
1089.153461  	8.292480 
1090.590339  	8.253246 
1092.027217  	8.247632 
1093.464095  	8.239979 
1094.900973  	8.222190 
1096.337851  	8.207695 
1097.774729  	8.193603 
1099.211607  	8.180411 
1100.648485  	8.184917 
1102.085362  	8.196405 
1103.522240  	8.193890 
1104.959118  	8.194847 
1106.395996  	8.182288 
1107.832874  	8.146386 
1109.269752  	8.144299 
1110.706630  	8.168288 
1112.143508  	8.170551 
1113.580386  	8.157517 
1115.017264  	8.147087 
1116.454142  	8.154133 
1117.891020  	8.160956 
1119.327897  	8.162589 
1120.764775  	8.188977 
1122.201653  	8.194800 
1123.638531  	8.174310 
1125.075409  	8.186418 
1126.512287  	8.184886 
1127.949165  	8.158687 
1129.386043  	8.164829 
1130.822921  	8.176755 
1132.259799  	8.182868 
1133.696677  	8.196858 
1135.133555  	8.206011 
1136.570432  	8.227053 
1138.007310  	8.253005 
1139.444188  	8.262051 
1140.881066  	8.268815 
1142.317944  	8.286911 
1143.754822  	8.318077 
1145.191700  	8.341566 
1146.628578  	8.350678 
1148.065456  	8.363040 
1149.502334  	8.369533 
1150.939212  	8.380893 
1152.376090  	8.407278 
1153.812967  	8.430780 
1155.249845  	8.457212 
1156.686723  	8.467113 
1158.123601  	8.466612 
1159.560479  	8.504814 
1160.997357  	8.537794 
1162.434235  	8.533040 
1163.871113  	8.535696 
1165.307991  	8.552779 
1166.744869  	8.576646 
1168.181747  	8.591798 
1169.618625  	8.604124 
1171.055502  	8.647106 
1172.492380  	8.676489 
1173.929258  	8.683845 
1175.366136  	8.712656 
1176.803014  	8.726624 
1178.239892  	8.735318 
1179.676770  	8.767587 
1181.113648  	8.781274 
1182.550526  	8.787355 
1183.987404  	8.799595 
1185.424282  	8.815294 
1186.861160  	8.854497 
1188.298038  	8.872567 
1189.734915  	8.870661 
1191.171793  	8.901387 
1192.608671  	8.926463 
1194.045549  	8.933952 
1195.482427  	8.949094 
1196.919305  	8.959193 
1198.356183  	8.977885 
1199.793061  	9.002545 
1201.229939  	9.018436 
1202.666817  	9.037691 
1204.103695  	9.054545 
1205.540573  	9.080533 
1206.977450  	9.109573 
1208.414328  	9.114597 
1209.851206  	9.133169 
1211.288084  	9.168263 
1212.724962  	9.185155 
1214.161840  	9.208298 
1215.598718  	9.234304 
1217.035596  	9.248623 
1218.472474  	9.276615 
1219.909352  	9.304390 
1221.346230  	9.318002 
1222.783108  	9.336540 
1224.219985  	9.355377 
1225.656863  	9.369759 
1227.093741  	9.389938 
1228.530619  	9.417354 
1229.967497  	9.449419 
1231.404375  	9.479603 
1232.841253  	9.499737 
1234.278131  	9.517197 
1235.715009  	9.546283 
1237.151887  	9.575019 
1238.588765  	9.589150 
1240.025643  	9.603208 
1241.462520  	9.622316 
1242.899398  	9.646262 
1244.336276  	9.683275 
1245.773154  	9.716556 
1247.210032  	9.737490 
1248.646910  	9.760218 
1250.083788  	9.787131 
1251.520666  	9.821246 
1252.957544  	9.856699 
1254.394422  	9.878315 
1255.831300  	9.895417 
1257.268178  	9.916916 
1258.705055  	9.930678 
1260.141933  	9.938152 
1261.578811  	9.962004 
1263.015689  	9.993759 
1264.452567  	10.008423 
1265.889445  	10.032424 
1267.326323  	10.068540 
1268.763201  	10.067658 
1270.200079  	10.053503 
1271.636957  	10.072931 
1273.073835  	10.111130 
1274.510713  	10.147773 
1275.947590  	10.159969 
1277.384468  	10.153924 
1278.821346  	10.166116 
1280.258224  	10.179142 
1281.695102  	10.182283 
1283.131980  	10.195103 
1284.568858  	10.202900 
1286.005736  	10.207521 
1287.442614  	10.226105 
1288.879492  	10.249872 
1290.316370  	10.264776 
1291.753248  	10.260790 
1293.190125  	10.257994 
1294.627003  	10.270880 
1296.063881  	10.278370 
1297.500759  	10.282685 
1298.937637  	10.286593 
1300.374515  	10.295596 
1301.811393  	10.327956 
1303.248271  	10.348228 
1304.685149  	10.345233 
1306.122027  	10.363649 
1307.558905  	10.382006 
1308.995783  	10.381562 
1310.432660  	10.388259 
1311.869538  	10.399358 
1313.306416  	10.411885 
1314.743294  	10.422905 
1316.180172  	10.424355 
1317.617050  	10.434961 
1319.053928  	10.461329 
1320.490806  	10.483003 
1321.927684  	10.490649 
1323.364562  	10.497133 
1324.801440  	10.507537 
1326.238318  	10.513624 
1327.675195  	10.524159 
1329.112073  	10.535091 
1330.548951  	10.544688 
1331.985829  	10.565514 
1333.422707  	10.580006 
1334.859585  	10.573103 
1336.296463  	10.569332 
1337.733341  	10.567529 
1339.170219  	10.584273 
1340.607097  	10.625878 
1342.043975  	10.632138 
1343.480853  	10.618807 
1344.917730  	10.622454 
1346.354608  	10.624047 
1347.791486  	10.623211 
1349.228364  	10.627214 
1350.665242  	10.623440 
1352.102120  	10.623873 
1353.538998  	10.631873 
1354.975876  	10.641942 
1356.412754  	10.648579 
1357.849632  	10.647050 
1359.286510  	10.632841 
1360.723388  	10.610235 
1362.160265  	10.614560 
1363.597143  	10.667927 
1365.034021  	10.673646 
1366.470899  	10.641093 
1367.907777  	10.645087 
1369.344655  	10.663670 
1370.781533  	10.667553 
1372.218411  	10.652881 
1373.655289  	10.664567 
1375.092167  	10.727289 
1376.529045  	10.728355 
1377.965923  	10.702397 
1379.402800  	10.725820 
1380.839678  	10.720767 
1382.276556  	10.708974 
1383.713434  	10.742110 
1385.150312  	10.717759 
1386.587190  	10.715245 
1388.024068  	10.791310 
1389.460946  	10.807044 
1390.897824  	10.792292 
1392.334702  	10.747422 
1393.771580  	10.709865 
1395.208458  	10.797302 
1396.645335  	10.827135 
1398.082213  	10.786934 
1399.519091  	10.864402 
1400.955969  	10.910533 
1402.392847  	10.848549 
1403.829725  	10.834788 
1405.266603  	10.866622 
1406.703481  	10.899384 
1408.140359  	10.899905 
1409.577237  	10.879338 
1411.014115  	10.919930 
1412.450993  	10.951036 
1413.887871  	10.940625 
1415.324748  	10.941276 
1416.761626  	10.900715 
1418.198504  	10.881707 
1419.635382  	11.093745 
1421.072260  	11.197797 
1422.509138  	11.087812 
1423.946016  	11.103480 
1425.382894  	11.227046 
1426.819772  	11.190960 
1428.256650  	11.185815 
1429.693528  	11.229985 
1431.130406  	11.245110 
1432.567283  	11.262562 
1434.004161  	11.216696 
1435.441039  	11.121737 
1436.877917  	11.254502 
1438.314795  	11.379082 
1439.751673  	11.288574 
1441.188551  	11.271196 
1442.625429  	11.280970 
1444.062307  	11.273127 
1445.499185  	11.240121 
1446.936063  	11.208837 
1448.372941  	11.288113 
1449.809818  	11.295629 
1451.246696  	11.206539 
1452.683574  	11.234026 
1454.120452  	11.159108 
1455.557330  	10.957239 
1456.994208  	11.115463 
1458.431086  	11.382623 
1459.867964  	11.325478 
1461.304842  	11.237599 
1462.741720  	11.110396 
1464.178598  	11.092205 
1465.615476  	11.220767 
1467.052353  	11.209521 
1468.489231  	11.157269 
1469.926109  	11.072028 
1471.362987  	10.975479 
1472.799865  	11.140134 
1474.236743  	11.258518 
1475.673621  	11.197985 
1477.110499  	11.263715 
1478.547377  	11.262865 
1479.984255  	11.162094 
1481.421133  	11.183091 
1482.858011  	11.228824 
1484.294888  	11.169624 
1485.731766  	11.144325 
1487.168644  	11.146860 
1488.605522  	11.134861 
1490.042400  	11.185479 
1491.479278  	11.305757 
1492.916156  	11.248292 
1494.353034  	11.134905 
1495.789912  	11.110619 
1497.226790  	11.198813 
1498.663668  	11.229189 
1500.100546  	11.233377 
1501.537423  	11.236713 
1502.974301  	11.169270 
1504.411179  	11.016678 
1505.848057  	10.919164 
1507.284935  	11.218287 
1508.721813  	11.377008 
1510.158691  	11.227058 
1511.595569  	11.183716 
1513.032447  	11.211839 
1514.469325  	11.159689 
1515.906203  	11.100232 
1517.343081  	11.199914 
1518.779958  	11.180857 
1520.216836  	11.026882 
1521.653714  	11.173407 
1523.090592  	11.256232 
1524.527470  	11.150130 
1525.964348  	11.167788 
1527.401226  	11.224834 
1528.838104  	11.206325 
1530.274982  	11.190816 
1531.711860  	11.080006 
1533.148738  	11.053467 
1534.585616  	11.260586 
1536.022493  	11.169510 
1537.459371  	10.934420 
1538.896249  	10.867341 
1540.333127  	11.080387 
1541.770005  	11.229234 
1543.206883  	11.189083 
1544.643761  	11.141686 
1546.080639  	11.206069 
1547.517517  	11.135138 
1548.954395  	11.046800 
1550.391273  	11.136714 
1551.828151  	11.110070 
1553.265028  	11.023231 
1554.701906  	11.098417 
1556.138784  	11.019204 
1557.575662  	10.725125 
1559.012540  	10.975641 
1560.449418  	11.502552 
1561.886296  	11.260384 
1563.323174  	11.059755 
1564.760052  	11.054178 
1566.196930  	11.073640 
1567.633808  	10.980552 
1569.070686  	10.968585 
1570.507563  	11.131935 
1571.944441  	11.119636 
1573.381319  	10.985852 
1574.818197  	10.931259 
1576.255075  	11.030876 
1577.691953  	11.190687 
1579.128831  	11.086739 
1580.565709  	11.045623 
1582.002587  	11.067195 
1583.439465  	11.066235 
1584.876343  	11.055508 
1586.313221  	11.041903 
1587.750098  	11.024923 
1589.186976  	11.022229 
1590.623854  	11.022131 
1592.060732  	10.997158 
1593.497610  	10.982916 
1594.934488  	10.998423 
1596.371366  	11.017844 
1597.808244  	11.031180 
1599.245122  	11.034225 
1600.682000  	11.050730 
1602.118878  	11.078260 
1603.555756  	11.064336 
1604.992633  	11.062673 
1606.429511  	11.040132 
1607.866389  	11.048601 
1609.303267  	11.086565 
1610.740145  	11.072143 
1612.177023  	11.084721 
1613.613901  	11.050561 
1615.050779  	10.933939 
1616.487657  	11.011801 
1617.924535  	11.230309 
1619.361413  	11.174276 
1620.798291  	11.044422 
1622.235168  	11.011675 
1623.672046  	11.159274 
1625.108924  	11.238539 
1626.545802  	11.163506 
1627.982680  	11.182730 
1629.419558  	11.266964 
1630.856436  	11.251870 
1632.293314  	11.196000 
1633.730192  	11.077712 
1635.167070  	11.065548 
1636.603948  	11.394326 
1638.040826  	11.402345 
1639.477703  	11.274742 
1640.914581  	11.290709 
1642.351459  	11.266943 
1643.788337  	11.152686 
1645.225215  	11.098779 
1646.662093  	11.229730 
1648.098971  	11.500622 
1649.535849  	11.402547 
1650.972727  	11.055595 
1652.409605  	10.874752 
1653.846483  	11.581636 
1655.283361  	11.659352 
1656.720239  	11.423535 
1658.157116  	11.316229 
1659.593994  	11.290667 
1661.030872  	11.258136 
1662.467750  	11.280412 
1663.904628  	11.388297 
1665.341506  	11.379338 
1666.778384  	11.243762 
1668.215262  	11.200196 
1669.652140  	11.275724 
1671.089018  	11.417348 
1672.525896  	11.384796 
1673.962774  	11.220786 
1675.399651  	11.350154 
1676.836529  	11.524059 
1678.273407  	11.347047 
1679.710285  	11.327791 
1681.147163  	11.346428 
1682.584041  	11.162062 
1684.020919  	11.270101 
1685.457797  	11.641989 
1686.894675  	11.464679 
1688.331553  	11.397015 
1689.768431  	11.431490 
1691.205309  	11.456980 
1692.642186  	11.420823 
1694.079064  	11.261379 
1695.515942  	11.308194 
1696.952820  	11.547251 
1698.389698  	11.359243 
1699.826576  	11.224498 
1701.263454  	11.785630 
1702.700332  	11.620881 
1704.137210  	11.417586 
1705.574088  	11.500112 
1707.010966  	11.574217 
1708.447844  	11.525432 
1709.884721  	11.543666 
1711.321599  	11.550142 
1712.758477  	11.510950 
1714.195355  	11.507887 
1715.632233  	11.502651 
1717.069111  	11.524502 
1718.505989  	11.708209 
1719.942867  	11.765542 
1721.379745  	11.635032 
1722.816623  	11.599671 
1724.253501  	11.649807 
1725.690379  	11.668953 
1727.127256  	11.648907 
1728.564134  	11.633670 
1730.001012  	11.653701 
1731.437890  	11.633745 
1732.874768  	11.506447 
1734.311646  	11.710754 
1735.748524  	11.975102 
1737.185402  	11.731737 
1738.622280  	11.615492 
1740.059158  	11.758103 
1741.496036  	11.776666 
1742.932914  	11.746835 
1744.369791  	11.785833 
1745.806669  	11.760646 
1747.243547  	11.751691 
1748.680425  	11.797543 
1750.117303  	11.804073 
1751.554181  	11.886480 
1752.991059  	11.965354 
1754.427937  	11.865560 
1755.864815  	11.817932 
1757.301693  	11.897910 
1758.738571  	11.915082 
1760.175449  	11.858325 
1761.612326  	11.881502 
1763.049204  	11.997092 
1764.486082  	11.987695 
1765.922960  	11.895873 
1767.359838  	11.893304 
1768.796716  	11.966264 
1770.233594  	11.923462 
1771.670472  	11.908193 
1773.107350  	12.079237 
1774.544228  	12.106188 
1775.981106  	12.045699 
1777.417984  	12.051115 
1778.854861  	12.018151 
1780.291739  	12.019927 
1781.728617  	12.085986 
1783.165495  	12.065516 
1784.602373  	12.075175 
1786.039251  	12.158799 
1787.476129  	12.158977 
1788.913007  	12.087664 
1790.349885  	12.013075 
1791.786763  	12.032723 
1793.223641  	12.223396 
1794.660519  	12.222454 
1796.097396  	12.135893 
1797.534274  	12.157183 
1798.971152  	12.137215 
1800.408030  	12.135386 
1801.844908  	12.234241 
1803.281786  	12.262640 
1804.718664  	12.259371 
1806.155542  	12.239397 
1807.592420  	12.214248 
1809.029298  	12.251597 
1810.466176  	12.255804 
1811.903054  	12.265719 
1813.339931  	12.319233 
1814.776809  	12.296141 
1816.213687  	12.310540 
1817.650565  	12.350986 
1819.087443  	12.339020 
1820.524321  	12.347043 
1821.961199  	12.344095 
1823.398077  	12.302769 
1824.834955  	12.345967 
1826.271833  	12.396968 
1827.708711  	12.341222 
1829.145589  	12.332623 
1830.582466  	12.443910 
1832.019344  	12.483409 
1833.456222  	12.436748 
1834.893100  	12.429931 
1836.329978  	12.459938 
1837.766856  	12.448801 
1839.203734  	12.468829 
1840.640612  	12.482508 
1842.077490  	12.411466 
1843.514368  	12.443721 
1844.951246  	12.612108 
1846.388124  	12.588728 
1847.825001  	12.522396 
1849.261879  	12.538929 
1850.698757  	12.537684 
1852.135635  	12.526656 
1853.572513  	12.560504 
1855.009391  	12.661736 
1856.446269  	12.584183 
1857.883147  	12.573731 
1859.320025  	12.673353 
1860.756903  	12.753181 
1862.193781  	12.782123 
1863.630659  	12.757966 
1865.067536  	12.703443 
1866.504414  	12.628918 
1867.941292  	12.604136 
1869.378170  	12.739506 
1870.815048  	12.841467 
1872.251926  	12.818751 
1873.688804  	12.820317 
1875.125682  	12.815182 
1876.562560  	12.764564 
1877.999438  	12.768144 
1879.436316  	12.778344 
1880.873194  	12.831060 
1882.310072  	12.880744 
1883.746949  	12.872680 
1885.183827  	12.883390 
1886.620705  	12.906498 
1888.057583  	12.887412 
1889.494461  	12.940406 
1890.931339  	12.989893 
1892.368217  	12.944660 
1893.805095  	12.952792 
1895.241973  	13.005166 
1896.678851  	13.021667 
1898.115729  	13.039594 
1899.552607  	13.047298 
1900.989484  	13.065230 
1902.426362  	13.115888 
1903.863240  	13.071120 
1905.300118  	13.100856 
1906.736996  	13.157325 
1908.173874  	13.169927 
1909.610752  	13.230230 
1911.047630  	13.284951 
1912.484508  	13.276101 
1913.921386  	13.268722 
1915.358264  	13.230845 
1916.795142  	13.239037 
1918.232019  	13.295777 
1919.668897  	13.314039 
1921.105775  	13.303965 
1922.542653  	13.393684 
1923.979531  	13.519443 
1925.416409  	13.568477 
1926.853287  	13.514177 
1928.290165  	13.547259 
1929.727043  	13.552484 
1931.163921  	13.578576 
1932.600799  	13.690946 
1934.037677  	13.768707 
1935.474554  	13.781713 
1936.911432  	13.745295 
1938.348310  	13.728137 
1939.785188  	13.721904 
1941.222066  	13.716814 
1942.658944  	13.952261 
1944.095822  	14.179833 
1945.532700  	14.111979 
1946.969578  	14.171642 
1948.406456  	14.356401 
1949.843334  	14.189661 
1951.280212  	14.134656 
1952.717089  	14.224610 
1954.153967  	14.300481 
1955.590845  	14.497989 
1957.027723  	14.658388 
1958.464601  	14.839150 
1959.901479  	14.878123 
1961.338357  	14.860281 
1962.775235  	15.028277 
1964.212113  	15.100130 
1965.648991  	15.106291 
1967.085869  	15.306209 
1968.522747  	15.401184 
1969.959624  	15.178465 
1971.396502  	15.210344 
1972.833380  	15.429999 
1974.270258  	15.700332 
1975.707136  	15.774819 
1977.144014  	15.866768 
1978.580892  	15.881503 
1980.017770  	15.460982 
1981.454648  	15.314231 
1982.891526  	15.409110 
1984.328404  	15.370622 
1985.765282  	15.270372 
1987.202159  	15.219818 
1988.639037  	15.236727 
1990.075915  	15.228417 
1991.512793  	15.156747 
1992.949671  	15.125941 
1994.386549  	15.092477 
1995.823427  	14.991434 
1997.260305  	15.061018 
1998.697183  	15.154039 
2000.134061  	15.069987 
2001.570939  	15.210558 
2003.007817  	15.363423 
2004.444694  	15.403065 
2005.881572  	15.473580 
2007.318450  	15.507000 
2008.755328  	15.648462 
2010.192206  	15.783826 
2011.629084  	15.893394 
2013.065962  	15.988579 
2014.502840  	15.804845 
2015.939718  	15.812123 
2017.376596  	15.993633 
2018.813474  	15.953984 
2020.250352  	16.086555 
2021.687229  	16.056689 
2023.124107  	15.764192 
2024.560985  	15.856056 
2025.997863  	16.099529 
2027.434741  	16.253050 
2028.871619  	16.179854 
2030.308497  	15.878663 
2031.745375  	15.916631 
2033.182253  	15.902994 
2034.619131  	15.734845 
2036.056009  	15.811666 
2037.492887  	15.638774 
2038.929764  	15.497818 
2040.366642  	15.581723 
2041.803520  	15.395450 
2043.240398  	15.289614 
2044.677276  	15.239906 
2046.114154  	15.100689 
2047.551032  	15.260646 
2048.987910  	15.264393 
2050.424788  	14.917271 
2051.861666  	14.693669 
2053.298544  	14.613835 
2054.735422  	14.679513 
2056.172299  	14.692858 
2057.609177  	14.557058 
2059.046055  	14.587505 
2060.482933  	14.568787 
2061.919811  	14.427598 
2063.356689  	14.454880 
2064.793567  	14.393139 
2066.230445  	14.270886 
2067.667323  	14.328411 
2069.104201  	14.327699 
2070.541079  	14.325503 
2071.977957  	14.423452 
2073.414834  	14.425589 
2074.851712  	14.372829 
2076.288590  	14.336025 
2077.725468  	14.279871 
2079.162346  	14.189339 
2080.599224  	14.115440 
2082.036102  	14.122033 
2083.472980  	14.118227 
2084.909858  	14.099972 
2086.346736  	14.132204 
2087.783614  	14.147487 
2089.220492  	14.203049 
2090.657369  	14.239125 
2092.094247  	14.101751 
2093.531125  	13.972851 
2094.968003  	13.943457 
2096.404881  	14.014330 
2097.841759  	14.146960 
2099.278637  	14.068705 
2100.715515  	13.961754 
2102.152393  	14.069969 
2103.589271  	14.100027 
2105.026149  	14.096621 
2106.463027  	14.186629 
2107.899904  	14.169389 
2109.336782  	14.134276 
2110.773660  	14.091536 
2112.210538  	13.959886 
2113.647416  	13.945693 
2115.084294  	14.014529 
2116.521172  	13.996121 
2117.958050  	13.970233 
2119.394928  	14.019520 
2120.831806  	14.109898 
2122.268684  	14.132460 
2123.705562  	14.122982 
2125.142440  	14.179220 
2126.579317  	14.188208 
2128.016195  	14.191110 
2129.453073  	14.294683 
2130.889951  	14.408894 
2132.326829  	14.578541 
2133.763707  	14.757173 
2135.200585  	14.846762 
2136.637463  	14.979462 
2138.074341  	15.046809 
2139.511219  	15.037722 
2140.948097  	15.055736 
2142.384975  	14.974274 
2143.821852  	14.941529 
2145.258730  	15.069754 
2146.695608  	15.167194 
2148.132486  	15.244649 
2149.569364  	15.333704 
2151.006242  	15.568513 
2152.443120  	15.933367 
2153.879998  	16.139320 
2155.316876  	16.460351 
2156.753754  	16.967347 
2158.190632  	17.210501 
2159.627510  	17.120692 
2161.064387  	16.748463 
2162.501265  	16.489846 
2163.938143  	16.292930 
2165.375021  	16.001322 
2166.811899  	15.926758 
2168.248777  	15.881269 
2169.685655  	15.722943 
2171.122533  	15.734357 
2172.559411  	15.794526 
2173.996289  	15.930514 
2175.433167  	16.165013 
2176.870045  	16.022778 
2178.306922  	15.753947 
2179.743800  	15.676099 
2181.180678  	15.458046 
2182.617556  	15.264942 
2184.054434  	15.467472 
2185.491312  	15.627358 
2186.928190  	15.429625 
2188.365068  	15.275008 
2189.801946  	15.304043 
2191.238824  	15.239451 
2192.675702  	15.270146 
2194.112580  	15.464369 
2195.549457  	15.441416 
2196.986335  	15.293447 
2198.423213  	15.206149 
2199.860091  	15.156702 
2201.296969  	15.234034 
2202.733847  	15.225574 
2204.170725  	15.074625 
2205.607603  	15.038306 
2207.044481  	14.994337 
2208.481359  	14.918751 
2209.918237  	14.907546 
2211.355115  	14.833271 
2212.791992  	14.852082 
2214.228870  	15.008887 
2215.665748  	15.025590 
2217.102626  	14.927567 
2218.539504  	14.852977 
2219.976382  	14.806986 
2221.413260  	14.712938 
2222.850138  	14.602699 
2224.287016  	14.623636 
2225.723894  	14.621679 
2227.160772  	14.559068 
2228.597650  	14.670897 
2230.034527  	14.784251 
2231.471405  	14.746418 
2232.908283  	14.698117 
2234.345161  	14.634996 
2235.782039  	14.627163 
2237.218917  	14.639236 
2238.655795  	14.520606 
2240.092673  	14.434385 
2241.529551  	14.438581 
2242.966429  	14.427099 
2244.403307  	14.414795 
2245.840185  	14.365769 
2247.277062  	14.334085 
2248.713940  	14.394593 
2250.150818  	14.420659 
2251.587696  	14.347200 
2253.024574  	14.243693 
2254.461452  	14.221495 
2255.898330  	14.293330 
2257.335208  	14.336955 
2258.772086  	14.358495 
2260.208964  	14.388095 
2261.645842  	14.375870 
2263.082720  	14.350694 
2264.519597  	14.311737 
2265.956475  	14.291196 
2267.393353  	14.276931 
2268.830231  	14.163260 
2270.267109  	14.094285 
2271.703987  	14.117201 
2273.140865  	14.064205 
2274.577743  	14.068643 
2276.014621  	14.190671 
2277.451499  	14.229821 
2278.888377  	14.188447 
2280.325255  	14.123450 
2281.762132  	14.074775 
2283.199010  	14.080795 
2284.635888  	14.030404 
2286.072766  	13.954284 
2287.509644  	13.993172 
2288.946522  	14.048200 
2290.383400  	13.990591 
2291.820278  	13.898372 
2293.257156  	13.894565 
2294.694034  	13.941239 
2296.130912  	13.921747 
2297.567790  	13.869915 
2299.004667  	13.869055 
2300.441545  	13.894775 
2301.878423  	13.902018 
2303.315301  	13.877689 
2304.752179  	13.864974 
2306.189057  	13.893717 
2307.625935  	13.893998 
2309.062813  	13.860733 
2310.499691  	13.865832 
2311.936569  	13.892834 
2313.373447  	13.917217 
2314.810325  	13.959767 
2316.247202  	13.973186 
2317.684080  	13.896726 
2319.120958  	13.804978 
2320.557836  	13.799352 
2321.994714  	13.840803 
2323.431592  	13.890146 
2324.868470  	13.906313 
2326.305348  	13.826855 
2327.742226  	13.774188 
2329.179104  	13.840411 
2330.615982  	13.899603 
2332.052860  	13.934691 
2333.489737  	13.971890 
2334.926615  	13.945086 
2336.363493  	13.930985 
2337.800371  	13.969494 
2339.237249  	13.983313 
2340.674127  	13.991304 
2342.111005  	13.986858 
2343.547883  	13.939276 
2344.984761  	13.961650 
2346.421639  	14.100112 
2347.858517  	14.110294 
2349.295395  	13.917502 
2350.732273  	13.796241 
2352.169150  	13.815340 
2353.606028  	13.856219 
2355.042906  	13.911621 
2356.479784  	14.002823 
2357.916662  	13.993450 
2359.353540  	13.982512 
2360.790418  	14.008170 
2362.227296  	13.976248 
2363.664174  	14.001052 
2365.101052  	14.050861 
2366.537930  	14.061964 
2367.974808  	14.100885 
2369.411685  	14.094596 
2370.848563  	14.065999 
2372.285441  	14.093648 
2373.722319  	14.125735 
2375.159197  	14.138794 
2376.596075  	14.109295 
2378.032953  	14.080922 
2379.469831  	14.102892 
2380.906709  	14.103955 
2382.343587  	14.093572 
2383.780465  	14.106101 
2385.217343  	14.078165 
2386.654220  	14.041055 
2388.091098  	14.064200 
2389.527976  	14.073708 
2390.964854  	14.066530 
2392.401732  	14.051070 
2393.838610  	14.044716 
2395.275488  	14.075100 
2396.712366  	14.083295 
2398.149244  	14.082335 
2399.586122  	14.111694 
2401.023000  	14.129822 
2402.459878  	14.131486 
2403.896755  	14.115062 
2405.333633  	14.111171 
2406.770511  	14.133851 
2408.207389  	14.107309 
2409.644267  	14.089119 
2411.081145  	14.125263 
2412.518023  	14.106261 
2413.954901  	14.062763 
2415.391779  	14.073274 
2416.828657  	14.111571 
2418.265535  	14.148179 
2419.702413  	14.151290 
2421.139290  	14.155505 
2422.576168  	14.179850 
2424.013046  	14.179550 
2425.449924  	14.189318 
2426.886802  	14.184068 
2428.323680  	14.152888 
2429.760558  	14.193349 
2431.197436  	14.222587 
2432.634314  	14.182989 
2434.071192  	14.192505 
2435.508070  	14.220024 
2436.944948  	14.209355 
2438.381825  	14.192787 
2439.818703  	14.188040 
2441.255581  	14.232574 
2442.692459  	14.261541 
2444.129337  	14.225464 
2445.566215  	14.226643 
2447.003093  	14.247028 
2448.439971  	14.233078 
2449.876849  	14.233360 
2451.313727  	14.233158 
2452.750605  	14.240885 
2454.187483  	14.279444 
2455.624360  	14.283346 
2457.061238  	14.257092 
2458.498116  	14.244442 
2459.934994  	14.237407 
2461.371872  	14.251892 
2462.808750  	14.280456 
2464.245628  	14.292582 
2465.682506  	14.300404 
2467.119384  	14.290787 
2468.556262  	14.250132 
2469.993140  	14.226572 
2471.430018  	14.225795 
2472.866895  	14.223202 
2474.303773  	14.251710 
2475.740651  	14.293880 
2477.177529  	14.299025 
2478.614407  	14.295429 
2480.051285  	14.290735 
2481.488163  	14.284690 
2482.925041  	14.309759 
2484.361919  	14.324677 
2485.798797  	14.319295 
2487.235675  	14.334302 
2488.672553  	14.348514 
2490.109430  	14.370407 
2491.546308  	14.376676 
2492.983186  	14.328680 
2494.420064  	14.319934 
2495.856942  	14.342278 
2497.293820  	14.325944 
2498.730698  	14.346035 
2500.167576  	14.367877 
2501.604454  	14.318340 
2503.041332  	14.298609 
2504.478210  	14.349871 
2505.915088  	14.404248 
2507.351965  	14.415070 
2508.788843  	14.396254 
2510.225721  	14.397224 
2511.662599  	14.383909 
2513.099477  	14.343683 
2514.536355  	14.332343 
2515.973233  	14.342776 
2517.410111  	14.392258 
2518.846989  	14.452622 
2520.283867  	14.425022 
2521.720745  	14.386328 
2523.157623  	14.408578 
2524.594500  	14.433819 
2526.031378  	14.466865 
2527.468256  	14.466122 
2528.905134  	14.396735 
2530.342012  	14.378275 
2531.778890  	14.418829 
2533.215768  	14.407735 
2534.652646  	14.382037 
2536.089524  	14.399056 
2537.526402  	14.394252 
2538.963280  	14.384766 
2540.400158  	14.454601 
2541.837035  	14.516009 
2543.273913  	14.496065 
2544.710791  	14.477220 
2546.147669  	14.447770 
2547.584547  	14.396890 
2549.021425  	14.396947 
2550.458303  	14.410854 
2551.895181  	14.427031 
2553.332059  	14.478517 
2554.768937  	14.497516 
2556.205815  	14.479609 
2557.642693  	14.476776 
2559.079570  	14.478983 
2560.516448  	14.472613 
2561.953326  	14.474594 
2563.390204  	14.519216 
2564.827082  	14.543266 
2566.263960  	14.490138 
2567.700838  	14.477951 
2569.137716  	14.505623 
2570.574594  	14.480897 
2572.011472  	14.468035 
2573.448350  	14.464863 
2574.885228  	14.454258 
2576.322105  	14.493424 
2577.758983  	14.511445 
2579.195861  	14.493472 
2580.632739  	14.502194 
2582.069617  	14.499095 
2583.506495  	14.496118 
2584.943373  	14.499802 
2586.380251  	14.472716 
2587.817129  	14.466665 
2589.254007  	14.494635 
2590.690885  	14.525201 
2592.127763  	14.535936 
2593.564641  	14.497026 
2595.001518  	14.484276 
2596.438396  	14.527080 
2597.875274  	14.522221 
2599.312152  	14.485475 
2600.749030  	14.496012 
2602.185908  	14.524935 
2603.622786  	14.517932 
2605.059664  	14.493918 
2606.496542  	14.509650 
2607.933420  	14.540868 
2609.370298  	14.546039 
2610.807176  	14.553100 
2612.244053  	14.564556 
2613.680931  	14.580566 
2615.117809  	14.590984 
2616.554687  	14.556802 
2617.991565  	14.530709 
2619.428443  	14.536303 
2620.865321  	14.528827 
2622.302199  	14.545327 
2623.739077  	14.575251 
2625.175955  	14.574745 
2626.612833  	14.586584 
2628.049711  	14.598135 
2629.486588  	14.596276 
2630.923466  	14.623542 
2632.360344  	14.642713 
2633.797222  	14.633884 
2635.234100  	14.631909 
2636.670978  	14.620915 
2638.107856  	14.608680 
2639.544734  	14.629013 
2640.981612  	14.649617 
2642.418490  	14.638287 
2643.855368  	14.632429 
2645.292246  	14.656576 
2646.729123  	14.669994 
2648.166001  	14.663951 
2649.602879  	14.674691 
2651.039757  	14.690842 
2652.476635  	14.691215 
2653.913513  	14.689017 
2655.350391  	14.689933 
2656.787269  	14.689591 
2658.224147  	14.690204 
2659.661025  	14.700670 
2661.097903  	14.715629 
2662.534781  	14.725604 
2663.971658  	14.743643 
2665.408536  	14.757039 
2666.845414  	14.743086 
2668.282292  	14.719915 
2669.719170  	14.707180 
2671.156048  	14.727618 
2672.592926  	14.766574 
2674.029804  	14.764163 
2675.466682  	14.746732 
2676.903560  	14.753490 
2678.340438  	14.757672 
2679.777316  	14.764818 
2681.214193  	14.760038 
2682.651071  	14.744432 
2684.087949  	14.773121 
2685.524827  	14.785538 
2686.961705  	14.747045 
2688.398583  	14.745792 
2689.835461  	14.758666 
2691.272339  	14.746137 
2692.709217  	14.752034 
2694.146095  	14.759559 
2695.582973  	14.765222 
2697.019851  	14.783513 
2698.456728  	14.772593 
2699.893606  	14.748263 
2701.330484  	14.752803 
2702.767362  	14.770659 
2704.204240  	14.787618 
2705.641118  	14.795097 
2707.077996  	14.788131 
2708.514874  	14.780894 
2709.951752  	14.780420 
2711.388630  	14.786714 
2712.825508  	14.800474 
2714.262386  	14.812290 
2715.699263  	14.808540 
2717.136141  	14.803823 
2718.573019  	14.809829 
2720.009897  	14.791622 
2721.446775  	14.765219 
2722.883653  	14.781104 
2724.320531  	14.796244 
2725.757409  	14.786696 
2727.194287  	14.797571 
2728.631165  	14.815581 
2730.068043  	14.815200 
2731.504921  	14.806687 
2732.941798  	14.800932 
2734.378676  	14.808017 
2735.815554  	14.809233 
2737.252432  	14.803698 
2738.689310  	14.812916 
2740.126188  	14.802259 
2741.563066  	14.768415 
2742.999944  	14.762914 
2744.436822  	14.789036 
2745.873700  	14.828072 
2747.310578  	14.856661 
2748.747456  	14.854222 
2750.184333  	14.842698 
2751.621211  	14.833872 
2753.058089  	14.830542 
2754.494967  	14.846710 
2755.931845  	14.856217 
2757.368723  	14.840400 
2758.805601  	14.826535 
2760.242479  	14.827425 
2761.679357  	14.835050 
2763.116235  	14.843298 
2764.553113  	14.846086 
2765.989991  	14.839568 
2767.426868  	14.825143 
2768.863746  	14.808847 
2770.300624  	14.800665 
2771.737502  	14.820027 
2773.174380  	14.863205 
2774.611258  	14.885283 
2776.048136  	14.872343 
2777.485014  	14.854427 
2778.921892  	14.848117 
2780.358770  	14.853066 
2781.795648  	14.853702 
2783.232526  	14.834613 
2784.669403  	14.816977 
2786.106281  	14.826218 
2787.543159  	14.846397 
2788.980037  	14.855495 
2790.416915  	14.865562 
2791.853793  	14.872885 
2793.290671  	14.856777 
2794.727549  	14.851366 
2796.164427  	14.867085 
2797.601305  	14.858016 
2799.038183  	14.840531 
2800.475061  	14.837909 
2801.911938  	14.833929 
2803.348816  	14.840136 
2804.785694  	14.843165 
2806.222572  	14.840078 
2807.659450  	14.860010 
2809.096328  	14.861442 
2810.533206  	14.844676 
2811.970084  	14.860076 
2813.406962  	14.860090 
2814.843840  	14.834057 
2816.280718  	14.829662 
2817.717596  	14.827473 
2819.154474  	14.829696 
2820.591351  	14.840052 
2822.028229  	14.824822 
2823.465107  	14.819181 
2824.901985  	14.848673 
2826.338863  	14.861991 
2827.775741  	14.834350 
2829.212619  	14.797313 
2830.649497  	14.791336 
2832.086375  	14.801566 
2833.523253  	14.798604 
2834.960131  	14.815937 
2836.397009  	14.839559 
2837.833886  	14.811839 
2839.270764  	14.783871 
2840.707642  	14.802382 
2842.144520  	14.802806 
2843.581398  	14.768860 
2845.018276  	14.756677 
2846.455154  	14.763311 
2847.892032  	14.757405 
2849.328910  	14.750562 
2850.765788  	14.753092 
2852.202666  	14.757310 
2853.639544  	14.764576 
2855.076421  	14.772362 
2856.513299  	14.775296 
2857.950177  	14.777839 
2859.387055  	14.790794 
2860.823933  	14.821183 
2862.260811  	14.850558 
2863.697689  	14.860003 
2865.134567  	14.852548 
2866.571445  	14.831875 
2868.008323  	14.820924 
2869.445201  	14.833581 
2870.882079  	14.840390 
2872.318956  	14.835134 
2873.755834  	14.831834 
2875.192712  	14.833562 
2876.629590  	14.847866 
2878.066468  	14.859425 
2879.503346  	14.865815 
2880.940224  	14.877275 
2882.377102  	14.861750 
2883.813980  	14.840511 
2885.250858  	14.852899 
2886.687736  	14.848611 
2888.124614  	14.828940 
2889.561491  	14.836293 
2890.998369  	14.831948 
2892.435247  	14.815058 
2893.872125  	14.825979 
2895.309003  	14.845600 
2896.745881  	14.851085 
2898.182759  	14.834848 
2899.619637  	14.805729 
2901.056515  	14.794392 
2902.493393  	14.795099 
2903.930271  	14.792103 
2905.367149  	14.788205 
2906.804026  	14.772986 
2908.240904  	14.753336 
2909.677782  	14.736496 
2911.114660  	14.701090 
2912.551538  	14.666374 
2913.988416  	14.664888 
2915.425294  	14.666162 
2916.862172  	14.655674 
2918.299050  	14.671618 
2919.735928  	14.712543 
2921.172806  	14.742854 
2922.609684  	14.753069 
2924.046561  	14.747846 
2925.483439  	14.750563 
2926.920317  	14.778104 
2928.357195  	14.797027 
2929.794073  	14.797365 
2931.230951  	14.811125 
2932.667829  	14.841354 
2934.104707  	14.876198 
2935.541585  	14.894801 
2936.978463  	14.887039 
2938.415341  	14.897996 
2939.852219  	14.930963 
2941.289096  	14.929705 
2942.725974  	14.903465 
2944.162852  	14.898059 
2945.599730  	14.922682 
2947.036608  	14.958804 
2948.473486  	14.969212 
2949.910364  	14.959626 
2951.347242  	14.979321 
2952.784120  	15.009564 
2954.220998  	15.009019 
2955.657876  	15.012924 
2957.094754  	15.033916 
2958.531631  	15.031558 
2959.968509  	15.022672 
2961.405387  	15.033456 
2962.842265  	15.049077 
2964.279143  	15.075155 
2965.716021  	15.096679 
2967.152899  	15.093298 
2968.589777  	15.102373 
2970.026655  	15.122616 
2971.463533  	15.126531 
2972.900411  	15.126425 
2974.337289  	15.115451 
2975.774166  	15.113383 
2977.211044  	15.151696 
2978.647922  	15.184034 
2980.084800  	15.188170 
2981.521678  	15.186829 
2982.958556  	15.191028 
2984.395434  	15.216330 
2985.832312  	15.223012 
2987.269190  	15.200102 
2988.706068  	15.218757 
2990.142946  	15.239385 
2991.579824  	15.216114 
2993.016701  	15.234311 
2994.453579  	15.279791 
2995.890457  	15.270228 
2997.327335  	15.255563 
2998.764213  	15.280820 
3000.201091  	15.296624 
3001.637969  	15.283594 
3003.074847  	15.269310 
3004.511725  	15.254581 
3005.948603  	15.239620 
3007.385481  	15.250401 
3008.822359  	15.270951 
3010.259236  	15.274189 
3011.696114  	15.281728 
3013.132992  	15.290937 
3014.569870  	15.283135 
3016.006748  	15.273958 
3017.443626  	15.272195 
3018.880504  	15.288693 
3020.317382  	15.317362 
3021.754260  	15.319585 
3023.191138  	15.309144 
3024.628016  	15.312662 
3026.064894  	15.301634 
3027.501771  	15.283713 
3028.938649  	15.306195 
3030.375527  	15.344948 
3031.812405  	15.344662 
3033.249283  	15.334689 
3034.686161  	15.345363 
3036.123039  	15.322165 
3037.559917  	15.291741 
3038.996795  	15.343403 
3040.433673  	15.407517 
3041.870551  	15.392675 
3043.307429  	15.360600 
3044.744306  	15.358378 
3046.181184  	15.364843 
3047.618062  	15.380172 
3049.054940  	15.398159 
3050.491818  	15.414516 
3051.928696  	15.431774 
3053.365574  	15.419440 
3054.802452  	15.402619 
3056.239330  	15.435444 
3057.676208  	15.435550 
3059.113086  	15.367346 
3060.549964  	15.369703 
3061.986842  	15.436373 
3063.423719  	15.437853 
3064.860597  	15.414250 
3066.297475  	15.425068 
3067.734353  	15.426463 
3069.171231  	15.400484 
3070.608109  	15.361810 
3072.044987  	15.357322 
3073.481865  	15.397087 
3074.918743  	15.405940 
3076.355621  	15.386093 
3077.792499  	15.392450 
3079.229377  	15.413349 
3080.666254  	15.438680 
3082.103132  	15.455900 
3083.540010  	15.449543 
3084.976888  	15.449683 
3086.413766  	15.475961 
3087.850644  	15.505753 
3089.287522  	15.506150 
3090.724400  	15.500794 
3092.161278  	15.525773 
3093.598156  	15.522126 
3095.035034  	15.480269 
3096.471912  	15.479953 
3097.908789  	15.512910 
3099.345667  	15.532893 
3100.782545  	15.526640 
3102.219423  	15.522952 
3103.656301  	15.563860 
3105.093179  	15.565704 
3106.530057  	15.513939 
3107.966935  	15.544624 
3109.403813  	15.600857 
3110.840691  	15.590189 
3112.277569  	15.613600 
3113.714447  	15.673649 
3115.151324  	15.680598 
3116.588202  	15.650461 
3118.025080  	15.642670 
3119.461958  	15.663723 
3120.898836  	15.652466 
3122.335714  	15.613699 
3123.772592  	15.605537 
3125.209470  	15.594041 
3126.646348  	15.588456 
3128.083226  	15.629616 
3129.520104  	15.641862 
3130.956982  	15.613870 
3132.393859  	15.620086 
3133.830737  	15.644916 
3135.267615  	15.654772 
3136.704493  	15.666185 
3138.141371  	15.665661 
3139.578249  	15.647541 
3141.015127  	15.675314 
3142.452005  	15.711796 
3143.888883  	15.660168 
3145.325761  	15.648167 
3146.762639  	15.746503 
3148.199517  	15.786626 
3149.636394  	15.794856 
3151.073272  	15.841279 
3152.510150  	15.798408 
3153.947028  	15.710847 
3155.383906  	15.685699 
3156.820784  	15.676669 
3158.257662  	15.693890 
3159.694540  	15.751549 
3161.131418  	15.800264 
3162.568296  	15.814877 
3164.005174  	15.799407 
3165.442052  	15.800050 
3166.878929  	15.806692 
3168.315807  	15.800061 
3169.752685  	15.835612 
3171.189563  	15.878941 
3172.626441  	15.891009 
3174.063319  	15.900551 
3175.500197  	15.886567 
3176.937075  	15.895427 
3178.373953  	15.953204 
3179.810831  	15.970979 
3181.247709  	15.956181 
3182.684587  	15.952531 
3184.121464  	15.966754 
3185.558342  	16.002762 
3186.995220  	16.012073 
3188.432098  	15.997621 
3189.868976  	15.975024 
3191.305854  	15.940612 
3192.742732  	15.968509 
3194.179610  	16.020043 
3195.616488  	16.011665 
3197.053366  	16.017876 
3198.490244  	16.057859 
3199.927122  	16.082555 
3201.363999  	16.086445 
3202.800877  	16.087263 
3204.237755  	16.133729 
3205.674633  	16.166263 
3207.111511  	16.130039 
3208.548389  	16.114727 
3209.985267  	16.129228 
3211.422145  	16.166133 
3212.859023  	16.232552 
3214.295901  	16.238269 
3215.732779  	16.211632 
3217.169657  	16.219940 
3218.606534  	16.237383 
3220.043412  	16.281774 
3221.480290  	16.303542 
3222.917168  	16.276656 
3224.354046  	16.296539 
3225.790924  	16.348410 
3227.227802  	16.375503 
3228.664680  	16.368299 
3230.101558  	16.360891 
3231.538436  	16.433182 
3232.975314  	16.503654 
3234.412192  	16.497721 
3235.849069  	16.508305 
3237.285947  	16.520791 
3238.722825  	16.508445 
3240.159703  	16.506995 
3241.596581  	16.499850 
3243.033459  	16.534701 
3244.470337  	16.604004 
3245.907215  	16.612377 
3247.344093  	16.565721 
3248.780971  	16.500457 
3250.217849  	16.481358 
3251.654727  	16.540028 
3253.091604  	16.590045 
3254.528482  	16.609422 
3255.965360  	16.623761 
3257.402238  	16.648327 
3258.839116  	16.685939 
3260.275994  	16.662349 
3261.712872  	16.628573 
3263.149750  	16.675242 
3264.586628  	16.701202 
3266.023506  	16.672557 
3267.460384  	16.639338 
3268.897262  	16.607880 
3270.334139  	16.623619 
3271.771017  	16.641566 
3273.207895  	16.585607 
3274.644773  	16.530138 
3276.081651  	16.540110 
3277.518529  	16.564816 
3278.955407  	16.554818 
3280.392285  	16.557383 
3281.829163  	16.569430 
3283.266041  	16.513681 
3284.702919  	16.496182 
3286.139797  	16.555743 
3287.576674  	16.538532 
3289.013552  	16.505760 
3290.450430  	16.524020 
3291.887308  	16.505780 
3293.324186  	16.493637 
3294.761064  	16.481873 
3296.197942  	16.443131 
3297.634820  	16.443231 
3299.071698  	16.441191 
3300.508576  	16.460644 
3301.945454  	16.509256 
3303.382332  	16.454573 
3304.819210  	16.399306 
3306.256087  	16.434476 
3307.692965  	16.429341 
3309.129843  	16.414663 
3310.566721  	16.418691 
3312.003599  	16.392689 
3313.440477  	16.409155 
3314.877355  	16.417172 
3316.314233  	16.358321 
3317.751111  	16.376165 
3319.187989  	16.459623 
3320.624867  	16.451497 
3322.061745  	16.393336 
3323.498622  	16.388494 
3324.935500  	16.385505 
3326.372378  	16.367862 
3327.809256  	16.400355 
3329.246134  	16.414941 
3330.683012  	16.364207 
3332.119890  	16.352913 
3333.556768  	16.375463 
3334.993646  	16.359367 
3336.430524  	16.344179 
3337.867402  	16.353412 
3339.304280  	16.354797 
3340.741157  	16.342334 
3342.178035  	16.349038 
3343.614913  	16.377898 
3345.051791  	16.364917 
3346.488669  	16.338129 
3347.925547  	16.385705 
3349.362425  	16.435235 
3350.799303  	16.392279 
3352.236181  	16.355908 
3353.673059  	16.421138 
3355.109937  	16.453520 
3356.546815  	16.368807 
3357.983692  	16.337948 
3359.420570  	16.392342 
3360.857448  	16.403227 
3362.294326  	16.415974 
3363.731204  	16.452414 
3365.168082  	16.442901 
3366.604960  	16.414042 
3368.041838  	16.412228 
3369.478716  	16.471223 
3370.915594  	16.528181 
3372.352472  	16.514068 
3373.789350  	16.532920 
3375.226227  	16.543168 
3376.663105  	16.462115 
3378.099983  	16.454177 
3379.536861  	16.520306 
3380.973739  	16.551206 
3382.410617  	16.583015 
3383.847495  	16.567234 
3385.284373  	16.508954 
3386.721251  	16.483908 
3388.158129  	16.442848 
3389.595007  	16.414373 
3391.031885  	16.450024 
3392.468762  	16.501501 
3393.905640  	16.524246 
3395.342518  	16.492647 
3396.779396  	16.484937 
3398.216274  	16.538963 
3399.653152  	16.545471 
3401.090030  	16.523108 
3402.526908  	16.515659 
3403.963786  	16.491277 
3405.400664  	16.490760 
3406.837542  	16.492246 
3408.274420  	16.474368 
3409.711297  	16.517133 
3411.148175  	16.590409 
3412.585053  	16.610587 
3414.021931  	16.597343 
3415.458809  	16.591580 
3416.895687  	16.559498 
3418.332565  	16.503317 
3419.769443  	16.535820 
3421.206321  	16.603866 
3422.643199  	16.587252 
3424.080077  	16.614120 
3425.516955  	16.678970 
3426.953832  	16.641010 
3428.390710  	16.599445 
3429.827588  	16.631945 
3431.264466  	16.659790 
3432.701344  	16.640148 
3434.138222  	16.649339 
3435.575100  	16.756522 
3437.011978  	16.777281 
3438.448856  	16.662042 
3439.885734  	16.648930 
3441.322612  	16.689544 
3442.759490  	16.698559 
3444.196367  	16.756912 
3445.633245  	16.759381 
3447.070123  	16.734825 
3448.507001  	16.790152 
3449.943879  	16.798525 
3451.380757  	16.766783 
3452.817635  	16.769760 
3454.254513  	16.783936 
3455.691391  	16.790818 
3457.128269  	16.793941 
3458.565147  	16.883514 
3460.002025  	16.949872 
3461.438902  	16.838358 
3462.875780  	16.801253 
3464.312658  	16.877482 
3465.749536  	16.882512 
3467.186414  	16.941002 
3468.623292  	17.001563 
3470.060170  	16.972344 
3471.497048  	16.994482 
3472.933926  	16.986017 
3474.370804  	16.942417 
3475.807682  	17.004504 
3477.244560  	17.044590 
3478.681437  	17.007850 
3480.118315  	16.998686 
3481.555193  	17.038968 
3482.992071  	17.092838 
3484.428949  	17.088903 
3485.865827  	17.040594 
3487.302705  	17.015773 
3488.739583  	17.060072 
3490.176461  	17.141679 
3491.613339  	17.099918 
3493.050217  	16.996676 
3494.487095  	17.027861 
3495.923972  	17.104116 
3497.360850  	17.147103 
3498.797728  	17.147851 
3500.234606  	17.073365 
3501.671484  	17.091245 
3503.108362  	17.216884 
3504.545240  	17.242756 
3505.982118  	17.179078 
3507.418996  	17.096031 
3508.855874  	17.059673 
3510.292752  	17.116308 
3511.729630  	17.134379 
3513.166507  	17.115116 
3514.603385  	17.141345 
3516.040263  	17.167292 
3517.477141  	17.192975 
3518.914019  	17.211004 
3520.350897  	17.167246 
3521.787775  	17.101374 
3523.224653  	17.102548 
3524.661531  	17.167014 
3526.098409  	17.203454 
3527.535287  	17.242246 
3528.972165  	17.281551 
3530.409043  	17.246242 
3531.845920  	17.266598 
3533.282798  	17.311331 
3534.719676  	17.254128 
3536.156554  	17.271899 
3537.593432  	17.332074 
3539.030310  	17.287788 
3540.467188  	17.286225 
3541.904066  	17.267017 
3543.340944  	17.180580 
3544.777822  	17.187762 
3546.214700  	17.252595 
3547.651578  	17.332318 
3549.088455  	17.384608 
3550.525333  	17.332267 
3551.962211  	17.344754 
3553.399089  	17.436633 
3554.835967  	17.398882 
3556.272845  	17.267883 
3557.709723  	17.211333 
3559.146601  	17.243290 
3560.583479  	17.300202 
3562.020357  	17.286876 
3563.457235  	17.258555 
3564.894113  	17.203205 
3566.330990  	17.150104 
3567.767868  	17.354964 
3569.204746  	17.589719 
3570.641624  	17.518601 
3572.078502  	17.438474 
3573.515380  	17.352427 
3574.952258  	17.318834 
3576.389136  	17.301651 
3577.826014  	17.250445 
3579.262892  	17.258539 
3580.699770  	17.302388 
3582.136648  	17.306688 
3583.573525  	17.296669 
3585.010403  	17.209842 
3586.447281  	17.138923 
3587.884159  	17.329966 
3589.321037  	17.588373 
3590.757915  	17.570639 
3592.194793  	17.399213 
3593.631671  	17.280953 
3595.068549  	17.306764 
3596.505427  	17.346323 
3597.942305  	17.328771 
3599.379183  	17.337729 
3600.816060  	17.416508 
3602.252938  	17.469591 
3603.689816  	17.416147 
3605.126694  	17.371814 
3606.563572  	17.344386 
3608.000450  	17.297307 
3609.437328  	17.367455 
3610.874206  	17.396060 
3612.311084  	17.325267 
3613.747962  	17.417587 
3615.184840  	17.455500 
3616.621718  	17.282226 
3618.058595  	17.208533 
3619.495473  	17.345895 
3620.932351  	17.559951 
3622.369229  	17.597664 
3623.806107  	17.475235 
3625.242985  	17.408910 
3626.679863  	17.254109 
3628.116741  	17.057775 
3629.553619  	17.511820 
3630.990497  	17.849846 
3632.427375  	17.553122 
3633.864253  	17.483744 
3635.301130  	17.584661 
3636.738008  	17.476486 
3638.174886  	17.425483 
3639.611764  	17.468075 
3641.048642  	17.444599 
3642.485520  	17.499622 
3643.922398  	17.547518 
3645.359276  	17.387368 
3646.796154  	17.200617 
3648.233032  	17.320982 
3649.669910  	17.533402 
3651.106788  	17.792604 
3652.543665  	17.906563 
3653.980543  	17.614444 
3655.417421  	17.443627 
3656.854299  	17.686207 
3658.291177  	17.786333 
3659.728055  	17.659915 
3661.164933  	17.675366 
3662.601811  	17.705035 
3664.038689  	17.673147 
3665.475567  	17.629185 
3666.912445  	17.507973 
3668.349323  	17.348354 
3669.786200  	17.441082 
3671.223078  	17.946726 
3672.659956  	17.858304 
3674.096834  	17.309531 
3675.533712  	17.412190 
3676.970590  	18.158523 
3678.407468  	17.902606 
3679.844346  	17.716064 
3681.281224  	17.792503 
3682.718102  	17.671617 
3684.154980  	17.644819 
3685.591858  	17.640062 
3687.028735  	17.442046 
3688.465613  	17.489428 
3689.902491  	17.759613 
3691.339369  	17.790162 
3692.776247  	17.851964 
3694.213125  	17.813259 
3695.650003  	17.659670 
3697.086881  	17.667115 
3698.523759  	17.685533 
3699.960637  	17.583193 
3701.397515  	17.641965 
3702.834393  	17.857709 
3704.271270  	17.878710 
3705.708148  	17.760293 
3707.145026  	17.655779 
3708.581904  	17.589828 
3710.018782  	17.544039 
3711.455660  	17.575620 
3712.892538  	17.847494 
3714.329416  	18.096805 
3715.766294  	17.949693 
3717.203172  	17.735690 
3718.640050  	17.722118 
3720.076928  	17.735168 
3721.513805  	17.699830 
3722.950683  	17.764489 
3724.387561  	17.767163 
3725.824439  	17.695570 
3727.261317  	17.826611 
3728.698195  	17.934620 
3730.135073  	17.745774 
3731.571951  	17.592131 
3733.008829  	17.657607 
3734.445707  	17.533989 
3735.882585  	17.630692 
3737.319463  	18.126659 
3738.756340  	18.010678 
3740.193218  	17.802281 
3741.630096  	17.743821 
3743.066974  	17.400895 
3744.503852  	17.517311 
3745.940730  	18.422383 
3747.377608  	17.962640 
3748.814486  	17.474647 
3750.251364  	17.731189 
3751.688242  	17.999448 
3753.125120  	18.189823 
3754.561998  	18.196650 
3755.998875  	17.883759 
3757.435753  	17.772857 
3758.872631  	17.837045 
3760.309509  	17.928461 
3761.746387  	18.114578 
3763.183265  	17.946074 
3764.620143  	17.748373 
3766.057021  	17.967114 
3767.493899  	17.986307 
3768.930777  	17.796202 
3770.367655  	17.960035 
3771.804533  	18.118787 
3773.241411  	17.995152 
3774.678288  	17.937895 
3776.115166  	17.954747 
3777.552044  	17.854637 
3778.988922  	17.816229 
3780.425800  	18.062616 
3781.862678  	18.094820 
3783.299556  	17.880739 
3784.736434  	17.920708 
3786.173312  	18.058550 
3787.610190  	18.028265 
3789.047068  	18.023931 
3790.483946  	17.976617 
3791.920823  	17.958354 
3793.357701  	18.015754 
3794.794579  	17.878824 
3796.231457  	17.820468 
3797.668335  	18.064460 
3799.105213  	17.972472 
3800.542091  	17.713136 
3801.978969  	18.062005 
3803.415847  	18.461776 
3804.852725  	18.087061 
3806.289603  	17.792651 
3807.726481  	18.130005 
3809.163358  	18.269410 
3810.600236  	18.031469 
3812.037114  	18.014854 
3813.473992  	17.948685 
3814.910870  	17.706791 
3816.347748  	17.978303 
3817.784626  	18.325840 
3819.221504  	17.910482 
3820.658382  	17.649246 
3822.095260  	18.246703 
3823.532138  	18.407462 
3824.969016  	18.033617 
3826.405893  	17.997587 
3827.842771  	18.209306 
3829.279649  	18.092915 
3830.716527  	17.975310 
3832.153405  	18.096579 
3833.590283  	18.111706 
3835.027161  	17.976627 
3836.464039  	17.887223 
3837.900917  	17.934086 
3839.337795  	18.150693 
3840.774673  	18.283193 
3842.211551  	18.228217 
3843.648428  	18.187124 
3845.085306  	18.264820 
3846.522184  	18.252061 
3847.959062  	18.097334 
3849.395940  	17.995877 
3850.832818  	17.813843 
3852.269696  	17.520724 
3853.706574  	17.962664 
3855.143452  	18.724218 
3856.580330  	18.478402 
3858.017208  	18.321273 
3859.454086  	18.212992 
3860.890963  	18.005727 
3862.327841  	18.000475 
3863.764719  	17.998394 
3865.201597  	18.090017 
3866.638475  	18.350729 
3868.075353  	18.061351 
3869.512231  	17.835578 
3870.949109  	18.394798 
3872.385987  	18.351415 
3873.822865  	18.044623 
3875.259743  	18.297229 
3876.696621  	18.356732 
3878.133498  	18.070646 
3879.570376  	17.978439 
3881.007254  	18.204331 
3882.444132  	18.358440 
3883.881010  	18.107112 
3885.317888  	17.939729 
3886.754766  	18.347172 
3888.191644  	18.374521 
3889.628522  	18.024161 
3891.065400  	18.044033 
3892.502278  	18.346447 
3893.939156  	18.378202 
3895.376033  	18.290045 
3896.812911  	18.146494 
3898.249789  	18.037982 
3899.686667  	18.134967 
3901.123545  	18.252275 
3902.560423  	18.202390 
3903.997301  	18.245057 
3905.434179  	18.457855 
3906.871057  	18.500810 
3908.307935  	18.389606 
3909.744813  	18.282986 
3911.181691  	18.253670 
3912.618568  	18.249923 
3914.055446  	18.243965 
3915.492324  	18.194671 
3916.929202  	18.242736 
3918.366080  	18.338827 
3919.802958  	18.337969 
3921.239836  	18.352137 
3922.676714  	18.326199 
3924.113592  	18.283079 
3925.550470  	18.377843 
3926.987348  	18.383802 
3928.424226  	18.264025 
3929.861103  	18.244174 
3931.297981  	18.254068 
3932.734859  	18.290833 
3934.171737  	18.409082 
3935.608615  	18.406283 
3937.045493  	18.360570 
3938.482371  	18.373829 
3939.919249  	18.387088 
3941.356127  	18.315376 
3942.793005  	18.331950 
3944.229883  	18.376657 
3945.666761  	18.357653 
3947.103638  	18.294014 
3948.540516  	18.293026 
3949.977394  	18.386899 
3951.414272  	18.427675 
3952.851150  	18.413463 
3954.288028  	18.418025 
3955.724906  	18.411931 
3957.161784  	18.416145 
3958.598662  	18.423631 
3960.035540  	18.382988 
3961.472418  	18.371197 
3962.909296  	18.401983 
3964.346173  	18.379042 
3965.783051  	18.338373 
3967.219929  	18.345741 
3968.656807  	18.372080 
3970.093685  	18.394692 
3971.530563  	18.402017 
3972.967441  	18.383215 
3974.404319  	18.384222 
3975.841197  	18.434587 
3977.278075  	18.459911 
3978.714953  	18.423102 
3980.151831  	18.418174 
3981.588708  	18.460367 
3983.025586  	18.457453 
3984.462464  	18.441726 
3985.899342  	18.458918 
3987.336220  	18.443521 
3988.773098  	18.424986 
3990.209976  	18.454298 
3991.646854  	18.457804 
3993.083732  	18.425162 
3994.520610  	18.412011 
3995.957488  	18.411075 
3997.394366  	18.419506 
3998.831244  	18.438430 
4000.268121  	18.438879 